,gx,gy,gz,ax,ay,az,mx,my,mz
0,0.54931640625,1.4190673828125,-8.04901123046875,-0.111328125,0.0743408203125,0.85015869140625,-72.28112030029297,128.06192016601562,11.889690399169922
1,0.61798095703125,1.495361328125,-8.0718994140625,-0.11181640625,0.075439453125,0.8511962890625,-72.28112030029297,128.06192016601562,11.889690399169922
2,0.58746337890625,1.42669677734375,-8.03375244140625,-0.1138916015625,0.0733642578125,0.849365234375,-72.28112030029297,128.06192016601562,11.889690399169922
3,0.54931640625,1.21307373046875,-7.9803466796875,-0.1112060546875,0.0701904296875,0.84942626953125,-72.28112030029297,128.06192016601562,11.889690399169922
4,0.64849853515625,1.1749267578125,-8.09478759765625,-0.1109619140625,0.0693359375,0.85333251953125,-72.28112030029297,128.06192016601562,11.889690399169922
5,0.67138671875,1.190185546875,-8.07952880859375,-0.10894775390625,0.0670166015625,0.8538818359375,-72.28112030029297,128.06192016601562,11.889690399169922
6,0.762939453125,1.18255615234375,-8.04901123046875,-0.1102294921875,0.068115234375,0.8529052734375,-72.28112030029297,128.06192016601562,11.889690399169922
7,0.75531005859375,1.09100341796875,-7.95745849609375,-0.11029052734375,0.06634521484375,0.8526611328125,-72.28112030029297,128.06192016601562,11.889690399169922
8,0.77056884765625,1.13677978515625,-8.0108642578125,-0.1112060546875,0.0693359375,0.852294921875,-72.28112030029297,128.06192016601562,11.889690399169922
9,0.66375732421875,1.1138916015625,-8.026123046875,-0.1107177734375,0.07232666015625,0.8536376953125,-72.98629760742188,127.35440063476562,12.569101333618164
10,0.60272216796875,1.0986328125,-8.00323486328125,-0.1123046875,0.0745849609375,0.8515625,-72.98629760742188,127.35440063476562,12.569101333618164
11,0.60272216796875,1.10626220703125,-8.087158203125,-0.1165771484375,0.07647705078125,0.852783203125,-72.98629760742188,127.35440063476562,12.569101333618164
12,0.335693359375,1.1138916015625,-7.9193115234375,-0.1099853515625,0.07470703125,0.84759521484375,-72.98629760742188,127.35440063476562,12.569101333618164
13,0.3204345703125,1.0833740234375,-7.98797607421875,-0.11590576171875,0.072509765625,0.84918212890625,-72.98629760742188,127.35440063476562,12.569101333618164
14,0.20599365234375,1.0986328125,-8.0718994140625,-0.1087646484375,0.07366943359375,0.84954833984375,-72.98629760742188,127.35440063476562,12.569101333618164
15,0.26702880859375,1.07574462890625,-8.026123046875,-0.10992431640625,0.0712890625,0.84869384765625,-72.98629760742188,127.35440063476562,12.569101333618164
16,0.20599365234375,0.9765625,-7.99560546875,-0.11175537109375,0.06927490234375,0.8502197265625,-72.98629760742188,127.35440063476562,12.569101333618164
17,-0.78582763671875,-0.49591064453125,-8.0413818359375,-0.1171875,0.06890869140625,0.85009765625,-72.98629760742188,127.35440063476562,12.569101333618164
18,-0.4119873046875,-0.45013427734375,-8.07952880859375,-0.11090087890625,0.06744384765625,0.849853515625,-72.98629760742188,127.35440063476562,12.569101333618164
19,-0.2899169921875,-0.54931640625,-8.1634521484375,-0.1077880859375,0.07049560546875,0.84869384765625,-72.98629760742188,127.35440063476562,12.569101333618164
20,-0.152587890625,-0.03814697265625,-8.15582275390625,-0.07867431640625,0.0203857421875,0.8616943359375,-72.98629760742188,127.35440063476562,12.569101333618164
21,1.13677978515625,7.659912109375,-8.23211669921875,-0.12164306640625,0.110595703125,0.86065673828125,-72.81000518798828,128.23880004882812,11.71983814239502
22,0.5950927734375,2.12860107421875,-7.97271728515625,-0.10455322265625,0.068115234375,0.85784912109375,-72.81000518798828,128.23880004882812,11.71983814239502
23,0.96893310546875,2.8228759765625,-7.98797607421875,-0.11328125,0.07940673828125,0.840087890625,-72.81000518798828,128.23880004882812,11.71983814239502
24,0.274658203125,1.76239013671875,-8.00323486328125,-0.11199951171875,0.07916259765625,0.8450927734375,-72.81000518798828,128.23880004882812,11.71983814239502
25,0.70953369140625,0.9002685546875,-8.11004638671875,-0.10784912109375,0.0621337890625,0.87823486328125,-72.81000518798828,128.23880004882812,11.71983814239502
26,0.946044921875,3.2196044921875,-8.12530517578125,-0.10247802734375,0.0418701171875,0.85565185546875,-72.81000518798828,128.23880004882812,11.71983814239502
27,0.0,-7.476806640625,-8.056640625,-0.19158935546875,-0.20709228515625,0.89739990234375,-72.81000518798828,128.23880004882812,11.71983814239502
28,-13.38958740234375,-38.1317138671875,-8.21685791015625,-0.12017822265625,0.09332275390625,0.8463134765625,-72.81000518798828,128.23880004882812,11.71983814239502
29,-17.09747314453125,-69.74029541015625,-8.1329345703125,-0.02685546875,0.3446044921875,0.94927978515625,-72.81000518798828,128.23880004882812,11.71983814239502
30,-34.62982177734375,-94.13909912109375,-8.17108154296875,-0.0074462890625,0.244140625,1.078857421875,-72.81000518798828,128.23880004882812,11.71983814239502
31,-19.2108154296875,-100.50201416015625,-8.07952880859375,0.15338134765625,0.12689208984375,1.116943359375,-72.81000518798828,128.23880004882812,11.71983814239502
32,16.85333251953125,-88.4552001953125,-7.95745849609375,0.0528564453125,0.05047607421875,1.31939697265625,-72.81000518798828,128.23880004882812,11.71983814239502
33,46.875,-60.75286865234375,-8.056640625,-0.01446533203125,0.027099609375,1.51513671875,-57.2960090637207,116.91841125488281,25.98746681213379
34,54.3365478515625,-25.24566650390625,-8.1787109375,-0.11102294921875,0.021728515625,1.68475341796875,-57.2960090637207,116.91841125488281,25.98746681213379
35,35.430908203125,7.7362060546875,-7.99560546875,-0.2119140625,-0.013427734375,1.7086181640625,-57.2960090637207,116.91841125488281,25.98746681213379
36,11.49749755859375,43.78509521484375,-8.01849365234375,-0.1966552734375,-0.0157470703125,1.552734375,-57.2960090637207,116.91841125488281,25.98746681213379
37,0.4425048828125,79.55169677734375,-7.97271728515625,-0.169677734375,-0.0635986328125,1.34814453125,-57.2960090637207,116.91841125488281,25.98746681213379
38,7.95745849609375,109.283447265625,-8.01849365234375,-0.1177978515625,0.02447509765625,1.1551513671875,-57.2960090637207,116.91841125488281,25.98746681213379
39,22.2930908203125,124.298095703125,-8.04901123046875,-0.06982421875,0.111572265625,1.11700439453125,-57.2960090637207,116.91841125488281,25.98746681213379
40,34.11865234375,126.6937255859375,-8.056640625,-0.02606201171875,0.0455322265625,1.1544189453125,-57.2960090637207,116.91841125488281,25.98746681213379
41,36.7889404296875,133.91876220703125,-8.026123046875,-0.0106201171875,-0.03253173828125,1.15325927734375,-57.2960090637207,116.91841125488281,25.98746681213379
42,30.364990234375,144.90509033203125,-8.20159912109375,-0.0394287109375,-0.11541748046875,1.1131591796875,-57.2960090637207,116.91841125488281,25.98746681213379
43,24.810791015625,155.98297119140625,-7.9193115234375,-0.09783935546875,-0.14739990234375,1.04931640625,-57.2960090637207,116.91841125488281,25.98746681213379
44,23.18572998046875,170.1202392578125,-7.9193115234375,-0.16217041015625,-0.14215087890625,0.991455078125,-57.2960090637207,116.91841125488281,25.98746681213379
45,28.80859375,187.0574951171875,-8.1024169921875,-0.09954833984375,-0.06512451171875,0.82958984375,-57.2960090637207,116.91841125488281,25.98746681213379
46,22.4609375,186.72943115234375,-7.95745849609375,-0.23663330078125,0.02362060546875,0.7989501953125,36.845741271972656,59.60893249511719,-24.968351364135742
47,2.777099609375,180.5877685546875,-7.88116455078125,-0.2894287109375,0.10565185546875,0.7305908203125,36.845741271972656,59.60893249511719,-24.968351364135742
48,-24.4903564453125,176.910400390625,-8.03375244140625,-0.36181640625,0.20477294921875,0.63006591796875,36.845741271972656,59.60893249511719,-24.968351364135742
49,-49.12567138671875,172.06573486328125,-7.965087890625,-0.36456298828125,0.19256591796875,0.518310546875,36.845741271972656,59.60893249511719,-24.968351364135742
50,-62.21771240234375,164.6270751953125,-8.09478759765625,-0.3311767578125,0.1771240234375,0.41522216796875,36.845741271972656,59.60893249511719,-24.968351364135742
51,-68.0999755859375,162.6739501953125,-8.00323486328125,-0.43115234375,0.387451171875,0.37896728515625,36.845741271972656,59.60893249511719,-24.968351364135742
52,-90.789794921875,135.27679443359375,-8.11004638671875,-0.3931884765625,0.388427734375,0.2691650390625,36.845741271972656,59.60893249511719,-24.968351364135742
53,-118.255615234375,91.05682373046875,-7.9803466796875,-0.2242431640625,0.257568359375,0.069091796875,36.845741271972656,59.60893249511719,-24.968351364135742
54,-137.88604736328125,41.7938232421875,-8.07952880859375,-0.09234619140625,0.2213134765625,-0.10308837890625,36.845741271972656,59.60893249511719,-24.968351364135742
55,-151.90887451171875,-15.594482421875,-8.17108154296875,-0.0059814453125,0.1776123046875,-0.20587158203125,36.845741271972656,59.60893249511719,-24.968351364135742
56,-162.078857421875,-76.16424560546875,-8.1634521484375,0.0733642578125,0.08233642578125,-0.2137451171875,36.845741271972656,59.60893249511719,-24.968351364135742
57,-176.81121826171875,-147.07183837890625,-8.11767578125,0.06304931640625,0.18035888671875,-0.1239013671875,36.845741271972656,59.60893249511719,-24.968351364135742
58,-196.075439453125,-218.05572509765625,-8.11767578125,0.169189453125,0.2554931640625,-0.15496826171875,45.484214782714844,56.248191833496094,-33.291133880615234
59,-178.97796630859375,-250.0,-8.11767578125,0.43231201171875,0.16229248046875,-0.27899169921875,45.484214782714844,56.248191833496094,-33.291133880615234
60,-108.10089111328125,-250.0,-8.01849365234375,0.661376953125,-0.009521484375,-0.28509521484375,45.484214782714844,56.248191833496094,-33.291133880615234
61,-6.89697265625,-250.0,-8.15582275390625,0.76171875,-0.156494140625,-0.091064453125,45.484214782714844,56.248191833496094,-33.291133880615234
62,82.69500732421875,-250.0,-8.04901123046875,0.7283935546875,-0.22027587890625,0.21533203125,45.484214782714844,56.248191833496094,-33.291133880615234
63,134.25445556640625,-250.0,-8.0718994140625,0.646240234375,-0.2838134765625,0.5146484375,45.484214782714844,56.248191833496094,-33.291133880615234
64,151.9317626953125,-250.0,-8.11004638671875,0.58648681640625,-0.38568115234375,0.72760009765625,45.484214782714844,56.248191833496094,-33.291133880615234
65,154.8309326171875,-250.0,-8.11767578125,0.53338623046875,-0.500732421875,0.89715576171875,45.484214782714844,56.248191833496094,-33.291133880615234
66,141.15142822265625,-250.0,-7.99560546875,0.47064208984375,-0.50537109375,1.05596923828125,45.484214782714844,56.248191833496094,-33.291133880615234
67,101.63116455078125,-250.0,-8.0718994140625,0.34954833984375,-0.5277099609375,1.32379150390625,45.484214782714844,56.248191833496094,-33.291133880615234
68,24.05548095703125,-250.0,-7.86590576171875,0.27056884765625,-0.4500732421875,1.452392578125,45.484214782714844,56.248191833496094,-33.291133880615234
69,-51.68914794921875,-250.0,-8.0718994140625,0.27239990234375,-0.4178466796875,1.3614501953125,45.484214782714844,56.248191833496094,-33.291133880615234
70,-82.1990966796875,-239.44854736328125,-8.06427001953125,0.244384765625,-0.497314453125,1.274658203125,49.36271286010742,45.63532638549805,-48.577880859375
71,-64.04876708984375,-220.123291015625,-7.843017578125,0.1802978515625,-0.58154296875,1.28741455078125,49.36271286010742,45.63532638549805,-48.577880859375
72,-18.4173583984375,-195.648193359375,-7.9193115234375,0.08251953125,-0.54248046875,1.3974609375,49.36271286010742,45.63532638549805,-48.577880859375
73,31.65435791015625,-158.99658203125,-8.00323486328125,-0.08978271484375,-0.4591064453125,1.66839599609375,49.36271286010742,45.63532638549805,-48.577880859375
74,59.0362548828125,-99.945068359375,-8.04901123046875,-0.242431640625,-0.376708984375,1.93414306640625,49.36271286010742,45.63532638549805,-48.577880859375
75,54.69512939453125,-23.8037109375,-8.0718994140625,-0.3388671875,-0.3292236328125,1.99993896484375,49.36271286010742,45.63532638549805,-48.577880859375
76,14.61029052734375,58.90655517578125,-7.97271728515625,-0.35980224609375,-0.28302001953125,1.99993896484375,49.36271286010742,45.63532638549805,-48.577880859375
77,-53.55072021484375,131.40869140625,-8.00323486328125,-0.26171875,-0.37347412109375,1.99993896484375,49.36271286010742,45.63532638549805,-48.577880859375
78,-116.729736328125,186.14959716796875,-8.00323486328125,-0.17437744140625,-0.52923583984375,1.8201904296875,49.36271286010742,45.63532638549805,-48.577880859375
79,-153.8238525390625,226.9744873046875,-8.12530517578125,-0.1646728515625,-0.51824951171875,1.5654296875,49.36271286010742,45.63532638549805,-48.577880859375
80,-177.398681640625,249.99237060546875,-8.21685791015625,-0.19317626953125,-0.50311279296875,1.3721923828125,49.36271286010742,45.63532638549805,-48.577880859375
81,-183.65478515625,249.99237060546875,-7.92694091796875,-0.2159423828125,-0.44281005859375,1.18017578125,49.36271286010742,45.63532638549805,-48.577880859375
82,-159.96551513671875,249.99237060546875,-8.1024169921875,-0.2437744140625,-0.42999267578125,1.02789306640625,49.36271286010742,45.63532638549805,-48.577880859375
83,-118.5302734375,249.99237060546875,-7.97271728515625,-0.2783203125,-0.3851318359375,0.957275390625,43.016082763671875,41.39018249511719,-52.314640045166016
84,-69.99969482421875,249.99237060546875,-7.965087890625,-0.270751953125,-0.31683349609375,0.81561279296875,43.016082763671875,41.39018249511719,-52.314640045166016
85,-5.2947998046875,249.99237060546875,-8.11767578125,-0.3095703125,-0.2427978515625,0.74212646484375,43.016082763671875,41.39018249511719,-52.314640045166016
86,72.25799560546875,249.99237060546875,-8.11767578125,-0.37762451171875,-0.1353759765625,0.77239990234375,43.016082763671875,41.39018249511719,-52.314640045166016
87,141.63970947265625,249.99237060546875,-8.1634521484375,-0.49871826171875,-0.06390380859375,0.8848876953125,43.016082763671875,41.39018249511719,-52.314640045166016
88,176.04827880859375,249.99237060546875,-8.087158203125,-0.6435546875,0.05743408203125,0.94598388671875,43.016082763671875,41.39018249511719,-52.314640045166016
89,175.51422119140625,249.99237060546875,-8.0413818359375,-0.61236572265625,0.070556640625,0.81512451171875,43.016082763671875,41.39018249511719,-52.314640045166016
90,156.3720703125,249.99237060546875,-8.0718994140625,-0.6397705078125,-0.03167724609375,0.80401611328125,43.016082763671875,41.39018249511719,-52.314640045166016
91,111.75537109375,249.99237060546875,-8.00323486328125,-0.491455078125,0.06939697265625,0.671875,43.016082763671875,41.39018249511719,-52.314640045166016
92,52.06298828125,249.99237060546875,-7.97271728515625,-0.41412353515625,0.0106201171875,0.46185302734375,43.016082763671875,41.39018249511719,-52.314640045166016
93,0.99945068359375,249.99237060546875,-8.07952880859375,-0.2891845703125,-0.11395263671875,0.2015380859375,43.016082763671875,41.39018249511719,-52.314640045166016
94,-5.9356689453125,249.99237060546875,-8.0413818359375,-0.16546630859375,-0.00030517578125,-0.03369140625,43.016082763671875,41.39018249511719,-52.314640045166016
95,17.99774169921875,217.010498046875,-8.0718994140625,-0.0303955078125,0.12451171875,-0.19049072265625,40.724239349365234,43.33586883544922,-34.4801025390625
96,51.91802978515625,184.844970703125,-8.03375244140625,-0.0921630859375,0.207275390625,-0.1209716796875,40.724239349365234,43.33586883544922,-34.4801025390625
97,73.18878173828125,167.510986328125,-8.11767578125,-0.03857421875,0.21343994140625,-0.1217041015625,40.724239349365234,43.33586883544922,-34.4801025390625
98,82.21435546875,131.23321533203125,-7.99560546875,-0.04595947265625,0.2275390625,-0.1221923828125,40.724239349365234,43.33586883544922,-34.4801025390625
99,83.06121826171875,88.3941650390625,-8.026123046875,-0.0174560546875,0.239013671875,-0.0875244140625,40.724239349365234,43.33586883544922,-34.4801025390625
100,69.122314453125,50.0030517578125,-8.148193359375,-0.03729248046875,0.23516845703125,-0.05316162109375,40.724239349365234,43.33586883544922,-34.4801025390625
101,47.5006103515625,17.8985595703125,-8.07952880859375,-0.03961181640625,0.24560546875,-0.09326171875,40.724239349365234,43.33586883544922,-34.4801025390625
102,23.65875244140625,-19.52362060546875,-8.087158203125,0.01617431640625,0.2623291015625,-0.203369140625,40.724239349365234,43.33586883544922,-34.4801025390625
103,6.30950927734375,-67.32940673828125,-8.11004638671875,0.16009521484375,0.2535400390625,-0.3544921875,40.724239349365234,43.33586883544922,-34.4801025390625
104,22.19390869140625,-115.59295654296875,-8.1329345703125,0.39910888671875,0.1541748046875,-0.399169921875,40.724239349365234,43.33586883544922,-34.4801025390625
105,65.3076171875,-151.5655517578125,-8.026123046875,0.759521484375,0.07281494140625,-0.4857177734375,40.724239349365234,43.33586883544922,-34.4801025390625
106,144.71435546875,-189.208984375,-8.07952880859375,1.080810546875,-0.0843505859375,-0.47393798828125,40.724239349365234,43.33586883544922,-34.4801025390625
107,220.06988525390625,-230.377197265625,-8.00323486328125,1.19146728515625,-0.16558837890625,-0.1422119140625,47.07087707519531,55.71754837036133,-35.49921798706055
108,237.1673583984375,-250.0,-7.9803466796875,1.22003173828125,-0.1611328125,0.1417236328125,47.07087707519531,55.71754837036133,-35.49921798706055
109,211.883544921875,-250.0,-8.026123046875,1.17071533203125,-0.24884033203125,0.39691162109375,47.07087707519531,55.71754837036133,-35.49921798706055
110,159.393310546875,-250.0,-7.9803466796875,1.04583740234375,-0.2347412109375,0.6934814453125,47.07087707519531,55.71754837036133,-35.49921798706055
111,80.66558837890625,-250.0,-8.0413818359375,0.89263916015625,-0.0823974609375,0.92730712890625,47.07087707519531,55.71754837036133,-35.49921798706055
112,-21.514892578125,-250.0,-7.99560546875,0.7626953125,0.0997314453125,1.255859375,47.07087707519531,55.71754837036133,-35.49921798706055
113,-140.83099365234375,-250.0,-8.056640625,0.824462890625,0.1444091796875,1.36383056640625,47.07087707519531,55.71754837036133,-35.49921798706055
114,-239.41802978515625,-250.0,-7.8887939453125,1.02569580078125,0.037353515625,1.2406005859375,47.07087707519531,55.71754837036133,-35.49921798706055
115,-250.0,-250.0,-8.01849365234375,1.2457275390625,-0.1419677734375,0.960205078125,47.07087707519531,55.71754837036133,-35.49921798706055
116,-250.0,-250.0,-8.00323486328125,1.36590576171875,-0.246826171875,0.94500732421875,47.07087707519531,55.71754837036133,-35.49921798706055
117,-250.0,-248.54278564453125,-8.03375244140625,1.36767578125,-0.30706787109375,0.968017578125,47.07087707519531,55.71754837036133,-35.49921798706055
118,-250.0,-231.5826416015625,-7.94219970703125,1.2220458984375,-0.3743896484375,1.109619140625,47.07087707519531,55.71754837036133,-35.49921798706055
119,-250.0,-226.86767578125,-8.0108642578125,0.9791259765625,-0.301513671875,1.28564453125,47.07087707519531,55.71754837036133,-35.49921798706055
120,-250.0,-224.17449951171875,-8.14056396484375,0.90252685546875,-0.22674560546875,1.26397705078125,48.3049430847168,54.83314514160156,-54.69257354736328
121,-250.0,-214.72930908203125,-8.07952880859375,0.94903564453125,-0.2418212890625,1.1236572265625,48.3049430847168,54.83314514160156,-54.69257354736328
122,-250.0,-210.33477783203125,-7.97271728515625,1.07513427734375,-0.31195068359375,0.99798583984375,48.3049430847168,54.83314514160156,-54.69257354736328
123,-250.0,-203.51409912109375,-7.89642333984375,1.18218994140625,-0.39141845703125,0.997314453125,48.3049430847168,54.83314514160156,-54.69257354736328
124,-250.0,-185.12725830078125,-7.99560546875,1.210693359375,-0.42095947265625,1.11480712890625,48.3049430847168,54.83314514160156,-54.69257354736328
125,-250.0,-148.70452880859375,-7.94219970703125,1.17724609375,-0.43963623046875,1.22808837890625,48.3049430847168,54.83314514160156,-54.69257354736328
126,-250.0,-100.1739501953125,-7.965087890625,1.11724853515625,-0.38006591796875,1.2041015625,48.3049430847168,54.83314514160156,-54.69257354736328
127,-250.0,-55.13763427734375,-7.9193115234375,1.12408447265625,-0.38018798828125,0.9512939453125,48.3049430847168,54.83314514160156,-54.69257354736328
128,-250.0,-23.3306884765625,-8.07952880859375,1.20550537109375,-0.43841552734375,0.55987548828125,48.3049430847168,54.83314514160156,-54.69257354736328
129,-250.0,-5.55419921875,-7.98797607421875,1.21112060546875,-0.40234375,0.2763671875,48.3049430847168,54.83314514160156,-54.69257354736328
130,-190.52886962890625,6.40106201171875,-7.83538818359375,1.09088134765625,-0.38385009765625,0.21722412109375,48.3049430847168,54.83314514160156,-54.69257354736328
131,-100.982666015625,24.58953857421875,-7.9193115234375,0.91070556640625,-0.2420654296875,0.213134765625,48.3049430847168,54.83314514160156,-54.69257354736328
132,-19.29473876953125,47.32513427734375,-7.94219970703125,0.79541015625,-0.11053466796875,0.0989990234375,43.36867141723633,53.0643310546875,-64.54403686523438
133,75.93536376953125,70.2667236328125,-8.06427001953125,0.75909423828125,-0.0733642578125,-0.0697021484375,43.36867141723633,53.0643310546875,-64.54403686523438
134,191.97845458984375,88.531494140625,-8.0413818359375,0.69268798828125,-0.0406494140625,-0.05352783203125,43.36867141723633,53.0643310546875,-64.54403686523438
135,249.99237060546875,110.626220703125,-8.0718994140625,0.5478515625,0.04400634765625,0.1495361328125,43.36867141723633,53.0643310546875,-64.54403686523438
136,249.99237060546875,147.2320556640625,-7.965087890625,0.3046875,0.2022705078125,0.4970703125,43.36867141723633,53.0643310546875,-64.54403686523438
137,249.99237060546875,193.1915283203125,-7.94219970703125,0.08892822265625,0.32635498046875,0.73583984375,43.36867141723633,53.0643310546875,-64.54403686523438
138,249.99237060546875,232.06329345703125,-7.9803466796875,0.0078125,0.4169921875,0.72857666015625,43.36867141723633,53.0643310546875,-64.54403686523438
139,249.99237060546875,249.99237060546875,-7.9193115234375,0.01483154296875,0.46173095703125,0.53369140625,43.36867141723633,53.0643310546875,-64.54403686523438
140,249.99237060546875,249.99237060546875,-7.9498291015625,0.02703857421875,0.5091552734375,0.25091552734375,43.36867141723633,53.0643310546875,-64.54403686523438
141,249.99237060546875,249.99237060546875,-7.97271728515625,0.02374267578125,0.57623291015625,-0.073974609375,43.36867141723633,53.0643310546875,-64.54403686523438
142,249.99237060546875,249.99237060546875,-8.07952880859375,-0.0816650390625,0.61456298828125,-0.15362548828125,43.36867141723633,53.0643310546875,-64.54403686523438
143,249.99237060546875,249.99237060546875,-8.14056396484375,-0.0965576171875,0.664794921875,-0.37457275390625,43.36867141723633,53.0643310546875,-64.54403686523438
144,249.99237060546875,249.99237060546875,-8.03375244140625,-0.22607421875,0.6495361328125,-0.42755126953125,43.36867141723633,53.0643310546875,-64.54403686523438
145,249.99237060546875,249.99237060546875,-8.026123046875,-0.4549560546875,0.63458251953125,-0.67547607421875,39.666465759277344,38.383201599121094,-38.55656814575195
146,249.99237060546875,249.99237060546875,-8.1329345703125,-0.81317138671875,0.82684326171875,-0.6697998046875,39.666465759277344,38.383201599121094,-38.55656814575195
147,249.99237060546875,227.294921875,-8.12530517578125,-1.25341796875,0.787109375,-0.51055908203125,39.666465759277344,38.383201599121094,-38.55656814575195
148,249.99237060546875,150.94757080078125,-8.26263427734375,-1.61962890625,0.74224853515625,-0.21319580078125,39.666465759277344,38.383201599121094,-38.55656814575195
149,249.99237060546875,66.45965576171875,-8.148193359375,-1.63201904296875,1.21258544921875,1.25146484375,39.666465759277344,38.383201599121094,-38.55656814575195
150,249.99237060546875,-22.97210693359375,-8.11004638671875,-1.344970703125,0.44940185546875,1.99993896484375,39.666465759277344,38.383201599121094,-38.55656814575195
151,206.97784423828125,-126.76239013671875,-8.15582275390625,-0.27618408203125,0.0093994140625,1.7869873046875,39.666465759277344,38.383201599121094,-38.55656814575195
152,71.2890625,-99.395751953125,-8.209228515625,0.25360107421875,-0.16363525390625,0.53411865234375,39.666465759277344,38.383201599121094,-38.55656814575195
153,165.88592529296875,-42.74749755859375,-8.04901123046875,0.40728759765625,-0.101318359375,0.1495361328125,39.666465759277344,38.383201599121094,-38.55656814575195
154,249.99237060546875,-20.59173583984375,-8.14056396484375,0.2254638671875,-0.0244140625,0.49163818359375,39.666465759277344,38.383201599121094,-38.55656814575195
155,249.99237060546875,-37.17803955078125,-8.2244873046875,0.13494873046875,0.20184326171875,0.72833251953125,39.666465759277344,38.383201599121094,-38.55656814575195
156,235.08453369140625,-64.6209716796875,-8.06427001953125,0.18634033203125,0.287841796875,0.79833984375,39.666465759277344,38.383201599121094,-38.55656814575195
157,212.16583251953125,-81.71844482421875,-8.1329345703125,0.2567138671875,0.24493408203125,0.70703125,37.37462615966797,72.16749572753906,-28.1955509185791
158,224.44915771484375,-80.5816650390625,-8.12530517578125,0.36224365234375,0.24749755859375,0.59674072265625,37.37462615966797,72.16749572753906,-28.1955509185791
159,249.99237060546875,-74.91302490234375,-8.1939697265625,0.4583740234375,0.28924560546875,0.56982421875,37.37462615966797,72.16749572753906,-28.1955509185791
160,249.99237060546875,-74.462890625,-8.11767578125,0.57000732421875,0.249267578125,0.6153564453125,37.37462615966797,72.16749572753906,-28.1955509185791
161,249.99237060546875,-68.84002685546875,-8.148193359375,0.63800048828125,0.25860595703125,0.7691650390625,37.37462615966797,72.16749572753906,-28.1955509185791
162,249.99237060546875,-49.5758056640625,-7.9803466796875,0.5626220703125,0.3369140625,1.055908203125,37.37462615966797,72.16749572753906,-28.1955509185791
163,249.99237060546875,-19.72198486328125,-8.12530517578125,0.41522216796875,0.39111328125,1.4248046875,37.37462615966797,72.16749572753906,-28.1955509185791
164,249.99237060546875,19.8822021484375,-8.06427001953125,0.2923583984375,0.35516357421875,1.73236083984375,37.37462615966797,72.16749572753906,-28.1955509185791
165,249.99237060546875,69.7021484375,-8.11767578125,0.2220458984375,0.32373046875,1.88623046875,37.37462615966797,72.16749572753906,-28.1955509185791
166,249.99237060546875,117.431640625,-8.0718994140625,0.1793212890625,0.328857421875,1.90972900390625,37.37462615966797,72.16749572753906,-28.1955509185791
167,249.99237060546875,152.24456787109375,-8.087158203125,0.32342529296875,0.2623291015625,1.67449951171875,37.37462615966797,72.16749572753906,-28.1955509185791
168,198.9593505859375,184.34906005859375,-8.04901123046875,0.48480224609375,0.2142333984375,1.3055419921875,37.37462615966797,72.16749572753906,-28.1955509185791
169,173.88916015625,211.25030517578125,-8.0718994140625,0.5782470703125,0.1888427734375,1.058837890625,29.617630004882812,85.25669860839844,-41.44406509399414
170,169.25048828125,227.4322509765625,-8.1329345703125,0.60687255859375,0.231689453125,1.00115966796875,29.617630004882812,85.25669860839844,-41.44406509399414
171,156.31866455078125,232.42950439453125,-7.98797607421875,0.62799072265625,0.26275634765625,1.0048828125,29.617630004882812,85.25669860839844,-41.44406509399414
172,134.40704345703125,231.75811767578125,-8.2550048828125,0.66845703125,0.2838134765625,0.9805908203125,29.617630004882812,85.25669860839844,-41.44406509399414
173,113.1591796875,228.1951904296875,-8.11004638671875,0.689697265625,0.24639892578125,0.930419921875,29.617630004882812,85.25669860839844,-41.44406509399414
174,93.5516357421875,236.419677734375,-8.1787109375,0.7161865234375,-0.050537109375,0.904052734375,29.617630004882812,85.25669860839844,-41.44406509399414
175,75.58441162109375,249.99237060546875,-8.06427001953125,0.76116943359375,-0.18707275390625,0.778076171875,29.617630004882812,85.25669860839844,-41.44406509399414
176,62.55340576171875,249.99237060546875,-7.94219970703125,0.69317626953125,-0.02301025390625,0.64862060546875,29.617630004882812,85.25669860839844,-41.44406509399414
177,41.05377197265625,249.99237060546875,-8.026123046875,0.5428466796875,0.09930419921875,0.59051513671875,29.617630004882812,85.25669860839844,-41.44406509399414
178,1.22833251953125,249.99237060546875,-8.12530517578125,0.3154296875,0.115966796875,0.56146240234375,29.617630004882812,85.25669860839844,-41.44406509399414
179,-49.69024658203125,249.99237060546875,-8.026123046875,0.12225341796875,0.05487060546875,0.42138671875,29.617630004882812,85.25669860839844,-41.44406509399414
180,-81.9091796875,249.99237060546875,-7.965087890625,0.0184326171875,0.021728515625,0.261962890625,29.617630004882812,85.25669860839844,-41.44406509399414
181,-100.16632080078125,249.99237060546875,-7.9193115234375,-0.0733642578125,-0.05926513671875,0.21954345703125,29.617630004882812,85.25669860839844,-41.44406509399414
182,-113.2354736328125,249.99237060546875,-8.0718994140625,-0.16204833984375,-0.154052734375,0.17193603515625,37.72721862792969,81.01155090332031,-37.36759567260742
183,-122.0855712890625,242.8131103515625,-8.0718994140625,-0.2972412109375,-0.23773193359375,0.18719482421875,37.72721862792969,81.01155090332031,-37.36759567260742
184,-129.09698486328125,231.36138916015625,-7.99560546875,-0.48046875,-0.33563232421875,0.2276611328125,37.72721862792969,81.01155090332031,-37.36759567260742
185,-137.664794921875,227.18048095703125,-7.9345703125,-0.68994140625,-0.35418701171875,0.275390625,37.72721862792969,81.01155090332031,-37.36759567260742
186,-148.1475830078125,228.546142578125,-7.98797607421875,-0.84893798828125,-0.30084228515625,0.23052978515625,37.72721862792969,81.01155090332031,-37.36759567260742
187,-151.763916015625,227.01263427734375,-7.98797607421875,-0.99774169921875,-0.338134765625,0.21746826171875,37.72721862792969,81.01155090332031,-37.36759567260742
188,-158.8287353515625,226.0284423828125,-7.843017578125,-1.13372802734375,-0.29779052734375,0.2462158203125,37.72721862792969,81.01155090332031,-37.36759567260742
189,-170.52459716796875,226.043701171875,-7.92694091796875,-1.24029541015625,-0.2420654296875,0.3050537109375,37.72721862792969,81.01155090332031,-37.36759567260742
190,-190.17791748046875,219.62738037109375,-8.00323486328125,-1.3701171875,-0.29833984375,0.41461181640625,37.72721862792969,81.01155090332031,-37.36759567260742
191,-219.1925048828125,209.4268798828125,-8.04901123046875,-1.510498046875,-0.38592529296875,0.47430419921875,37.72721862792969,81.01155090332031,-37.36759567260742
192,-240.28778076171875,206.24542236328125,-7.97271728515625,-1.6318359375,-0.46856689453125,0.4573974609375,37.72721862792969,81.01155090332031,-37.36759567260742
193,-232.72705078125,218.75,-7.77435302734375,-1.7164306640625,-0.4954833984375,0.35919189453125,37.72721862792969,81.01155090332031,-37.36759567260742
194,-194.1070556640625,249.99237060546875,-7.88116455078125,-1.78790283203125,-0.495849609375,0.28887939453125,40.724239349365234,50.41111373901367,-23.949235916137695
195,-149.52850341796875,249.99237060546875,-7.9803466796875,-1.94403076171875,-0.411376953125,0.220947265625,40.724239349365234,50.41111373901367,-23.949235916137695
196,-137.03155517578125,249.99237060546875,-7.965087890625,-2.0,-0.15460205078125,0.0604248046875,40.724239349365234,50.41111373901367,-23.949235916137695
197,-146.8505859375,249.99237060546875,-7.904052734375,-2.0,-0.126220703125,-0.10693359375,40.724239349365234,50.41111373901367,-23.949235916137695
198,-139.9078369140625,209.20562744140625,-8.087158203125,-2.0,-0.18475341796875,-0.190673828125,40.724239349365234,50.41111373901367,-23.949235916137695
199,-85.62469482421875,171.051025390625,-7.8582763671875,-2.0,-0.18170166015625,-0.13861083984375,40.724239349365234,50.41111373901367,-23.949235916137695
200,-7.8125,157.9437255859375,-7.99560546875,-1.95849609375,-0.1790771484375,0.19439697265625,40.724239349365234,50.41111373901367,-23.949235916137695
201,34.8358154296875,160.5987548828125,-8.11767578125,-1.9508056640625,-0.16912841796875,0.5516357421875,40.724239349365234,50.41111373901367,-23.949235916137695
202,32.58514404296875,165.33660888671875,-8.17108154296875,-1.86224365234375,-0.19329833984375,0.76043701171875,40.724239349365234,50.41111373901367,-23.949235916137695
203,23.70452880859375,180.2978515625,-8.04901123046875,-1.775146484375,-0.28204345703125,0.86492919921875,40.724239349365234,50.41111373901367,-23.949235916137695
204,22.2625732421875,220.48187255859375,-8.1024169921875,-1.770263671875,-0.3519287109375,0.9857177734375,40.724239349365234,50.41111373901367,-23.949235916137695
205,-1.31988525390625,249.99237060546875,-8.12530517578125,-1.83734130859375,-0.3448486328125,1.05413818359375,40.724239349365234,50.41111373901367,-23.949235916137695
206,-51.3153076171875,249.99237060546875,-8.15582275390625,-1.884765625,-0.3701171875,0.9151611328125,25.739131927490234,45.28156280517578,-20.042621612548828
207,-91.27044677734375,249.99237060546875,-8.1634521484375,-1.9212646484375,-0.427490234375,0.5750732421875,25.739131927490234,45.28156280517578,-20.042621612548828
208,-99.7467041015625,249.99237060546875,-8.209228515625,-1.78485107421875,-0.5023193359375,0.32366943359375,25.739131927490234,45.28156280517578,-20.042621612548828
209,-105.9112548828125,249.99237060546875,-8.07952880859375,-1.744140625,-0.5760498046875,0.15460205078125,25.739131927490234,45.28156280517578,-20.042621612548828
210,-107.61260986328125,249.99237060546875,-8.11004638671875,-1.6973876953125,-0.534912109375,-0.02099609375,25.739131927490234,45.28156280517578,-20.042621612548828
211,-104.6600341796875,235.6109619140625,-8.1329345703125,-1.6781005859375,-0.4512939453125,-0.1060791015625,25.739131927490234,45.28156280517578,-20.042621612548828
212,-99.38812255859375,205.39093017578125,-8.12530517578125,-1.59954833984375,-0.3941650390625,-0.207763671875,25.739131927490234,45.28156280517578,-20.042621612548828
213,-85.01434326171875,174.407958984375,-8.148193359375,-1.44610595703125,-0.367431640625,-0.3099365234375,25.739131927490234,45.28156280517578,-20.042621612548828
214,-65.01007080078125,146.1334228515625,-8.1329345703125,-1.3377685546875,-0.37066650390625,-0.34375,25.739131927490234,45.28156280517578,-20.042621612548828
215,-50.62103271484375,114.227294921875,-8.209228515625,-1.189453125,-0.31195068359375,-0.38580322265625,25.739131927490234,45.28156280517578,-20.042621612548828
216,-39.68048095703125,77.64434814453125,-8.17108154296875,-1.0654296875,-0.2591552734375,-0.44287109375,25.739131927490234,45.28156280517578,-20.042621612548828
217,-21.01898193359375,42.8466796875,-8.11004638671875,-0.9356689453125,-0.16632080078125,-0.4818115234375,25.739131927490234,45.28156280517578,-20.042621612548828
218,3.39508056640625,11.749267578125,-8.2855224609375,-0.8363037109375,-0.09405517578125,-0.48492431640625,25.739131927490234,45.28156280517578,-20.042621612548828
219,28.84674072265625,-18.9361572265625,-8.23211669921875,-0.7469482421875,-0.02545166015625,-0.47357177734375,22.91840362548828,44.57404327392578,-23.099971771240234
220,49.53765869140625,-54.52728271484375,-8.12530517578125,-0.675048828125,0.096435546875,-0.43280029296875,22.91840362548828,44.57404327392578,-23.099971771240234
221,54.87060546875,-93.45245361328125,-8.1939697265625,-0.646240234375,0.18359375,-0.3426513671875,22.91840362548828,44.57404327392578,-23.099971771240234
222,44.53277587890625,-127.3651123046875,-8.07952880859375,-0.6129150390625,0.21099853515625,-0.22296142578125,22.91840362548828,44.57404327392578,-23.099971771240234
223,23.26202392578125,-154.449462890625,-8.04901123046875,-0.53729248046875,0.23834228515625,-0.1444091796875,22.91840362548828,44.57404327392578,-23.099971771240234
224,4.486083984375,-175.537109375,-8.2244873046875,-0.42486572265625,0.2044677734375,-0.135009765625,22.91840362548828,44.57404327392578,-23.099971771240234
225,-1.007080078125,-191.3604736328125,-8.11767578125,-0.278564453125,0.1500244140625,-0.14373779296875,22.91840362548828,44.57404327392578,-23.099971771240234
226,7.56072998046875,-207.6873779296875,-8.14056396484375,-0.104736328125,0.0982666015625,-0.12713623046875,22.91840362548828,44.57404327392578,-23.099971771240234
227,25.6805419921875,-221.588134765625,-8.07952880859375,0.052490234375,0.03582763671875,-0.05316162109375,22.91840362548828,44.57404327392578,-23.099971771240234
228,46.53167724609375,-229.24041748046875,-8.17108154296875,0.1641845703125,0.01263427734375,0.0811767578125,22.91840362548828,44.57404327392578,-23.099971771240234
229,60.1654052734375,-229.17938232421875,-8.20159912109375,0.21868896484375,0.03826904296875,0.255615234375,22.91840362548828,44.57404327392578,-23.099971771240234
230,62.18719482421875,-223.4344482421875,-8.0108642578125,0.26708984375,0.0611572265625,0.3656005859375,22.91840362548828,44.57404327392578,-23.099971771240234
231,61.86676025390625,-210.0067138671875,-7.86590576171875,0.2923583984375,0.04107666015625,0.4393310546875,39.31387710571289,52.887454986572266,-25.64776039123535
232,64.43023681640625,-193.8934326171875,-7.9345703125,0.283203125,0.1019287109375,0.50714111328125,39.31387710571289,52.887454986572266,-25.64776039123535
233,61.74468994140625,-182.57904052734375,-8.0718994140625,0.22137451171875,0.18914794921875,0.6041259765625,39.31387710571289,52.887454986572266,-25.64776039123535
234,39.64996337890625,-184.4940185546875,-8.07952880859375,0.1243896484375,0.3165283203125,0.7291259765625,39.31387710571289,52.887454986572266,-25.64776039123535
235,-5.8746337890625,-197.723388671875,-8.11767578125,0.0145263671875,0.406005859375,0.872802734375,39.31387710571289,52.887454986572266,-25.64776039123535
236,-59.38720703125,-206.11572265625,-8.04901123046875,-0.05291748046875,0.420166015625,0.94635009765625,39.31387710571289,52.887454986572266,-25.64776039123535
237,-101.6998291015625,-201.7974853515625,-7.965087890625,-0.0548095703125,0.34344482421875,0.91412353515625,39.31387710571289,52.887454986572266,-25.64776039123535
238,-119.9188232421875,-188.1256103515625,-8.056640625,-0.037841796875,0.266357421875,0.8492431640625,39.31387710571289,52.887454986572266,-25.64776039123535
239,-125.6103515625,-176.29241943359375,-8.03375244140625,0.00604248046875,0.21771240234375,0.79974365234375,39.31387710571289,52.887454986572266,-25.64776039123535
240,-114.8529052734375,-171.07391357421875,-8.0718994140625,0.07257080078125,0.18719482421875,0.72882080078125,39.31387710571289,52.887454986572266,-25.64776039123535
241,-68.0084228515625,-163.909912109375,-8.11004638671875,0.04876708984375,0.1805419921875,0.79400634765625,39.31387710571289,52.887454986572266,-25.64776039123535
242,-9.1705322265625,-135.2081298828125,-8.087158203125,-0.02520751953125,0.3438720703125,0.98297119140625,39.31387710571289,52.887454986572266,-25.64776039123535
243,25.8941650390625,-90.66009521484375,-8.03375244140625,-0.18341064453125,0.42938232421875,1.36810302734375,47.423465728759766,57.132598876953125,-34.14039611816406
244,1.190185546875,-41.83197021484375,-7.94219970703125,-0.220703125,0.45220947265625,1.55999755859375,47.423465728759766,57.132598876953125,-34.14039611816406
245,-45.92132568359375,3.57818603515625,-8.3160400390625,-0.2301025390625,0.42498779296875,1.40081787109375,47.423465728759766,57.132598876953125,-34.14039611816406
246,-76.25579833984375,34.5611572265625,-8.11767578125,-0.308349609375,0.52880859375,1.209228515625,47.423465728759766,57.132598876953125,-34.14039611816406
247,-117.034912109375,42.12188720703125,-8.1939697265625,-0.4801025390625,0.611572265625,1.08184814453125,47.423465728759766,57.132598876953125,-34.14039611816406
248,-151.20697021484375,47.882080078125,-8.148193359375,-0.50030517578125,0.65216064453125,0.80120849609375,47.423465728759766,57.132598876953125,-34.14039611816406
249,-115.59295654296875,68.30596923828125,-8.12530517578125,-0.293212890625,0.30194091796875,0.3760986328125,47.423465728759766,57.132598876953125,-34.14039611816406
250,-4.0740966796875,96.35162353515625,-8.07952880859375,-0.11865234375,0.2451171875,0.0889892578125,47.423465728759766,57.132598876953125,-34.14039611816406
251,126.3885498046875,97.015380859375,-8.0718994140625,0.02227783203125,0.19964599609375,-0.0484619140625,47.423465728759766,57.132598876953125,-34.14039611816406
252,247.039794921875,65.89508056640625,-8.06427001953125,0.08233642578125,0.16583251953125,-0.03155517578125,47.423465728759766,57.132598876953125,-34.14039611816406
253,249.99237060546875,20.46966552734375,-8.4075927734375,0.1168212890625,0.18756103515625,0.1754150390625,47.423465728759766,57.132598876953125,-34.14039611816406
254,249.99237060546875,-17.60101318359375,-8.026123046875,0.05889892578125,0.03570556640625,0.8529052734375,47.423465728759766,57.132598876953125,-34.14039611816406
255,249.99237060546875,-58.8226318359375,-8.1024169921875,0.03118896484375,-0.00506591796875,1.25848388671875,47.423465728759766,57.132598876953125,-34.14039611816406
256,242.42401123046875,-90.72113037109375,-8.0108642578125,0.07818603515625,-0.00830078125,1.45556640625,46.365692138671875,72.34437561035156,-34.14039611816406
257,152.6947021484375,-95.0469970703125,-8.09478759765625,0.10858154296875,-0.0343017578125,1.45880126953125,46.365692138671875,72.34437561035156,-34.14039611816406
258,98.91510009765625,-72.6318359375,-8.0718994140625,0.1600341796875,-0.040283203125,1.38214111328125,46.365692138671875,72.34437561035156,-34.14039611816406
259,72.93701171875,-34.24835205078125,-7.94219970703125,0.1533203125,-0.04071044921875,1.347900390625,46.365692138671875,72.34437561035156,-34.14039611816406
260,52.20794677734375,5.7373046875,-7.98797607421875,0.1611328125,-0.02117919921875,1.2684326171875,46.365692138671875,72.34437561035156,-34.14039611816406
261,37.2772216796875,37.02545166015625,-8.00323486328125,0.2099609375,0.00775146484375,1.04327392578125,46.365692138671875,72.34437561035156,-34.14039611816406
262,42.22869873046875,57.51800537109375,-8.04901123046875,0.14306640625,0.0892333984375,0.86090087890625,46.365692138671875,72.34437561035156,-34.14039611816406
263,51.3763427734375,67.9168701171875,-8.15582275390625,0.07257080078125,0.13494873046875,0.72943115234375,46.365692138671875,72.34437561035156,-34.14039611816406
264,58.9752197265625,57.92236328125,-8.11004638671875,0.04302978515625,0.15753173828125,0.656494140625,46.365692138671875,72.34437561035156,-34.14039611816406
265,64.04876708984375,24.0478515625,-8.18634033203125,0.05938720703125,0.079345703125,0.68206787109375,46.365692138671875,72.34437561035156,-34.14039611816406
266,62.1795654296875,-6.52313232421875,-8.18634033203125,0.04931640625,0.025390625,0.80963134765625,46.365692138671875,72.34437561035156,-34.14039611816406
267,50.72021484375,-24.658203125,-8.026123046875,0.0948486328125,-0.0118408203125,0.89349365234375,46.365692138671875,72.34437561035156,-34.14039611816406
268,43.67828369140625,-27.0538330078125,-8.1939697265625,0.21221923828125,-0.07684326171875,0.90447998046875,36.316856384277344,84.5491714477539,-38.04701232910156
269,47.2869873046875,-24.3377685546875,-8.056640625,0.33746337890625,-0.14361572265625,0.95831298828125,36.316856384277344,84.5491714477539,-38.04701232910156
270,48.4619140625,-24.169921875,-8.11004638671875,0.440673828125,-0.22100830078125,1.069091796875,36.316856384277344,84.5491714477539,-38.04701232910156
271,43.5791015625,-18.34869384765625,-8.0718994140625,0.50830078125,-0.28265380859375,1.1221923828125,36.316856384277344,84.5491714477539,-38.04701232910156
272,37.8265380859375,-4.32586669921875,-8.11004638671875,0.50482177734375,-0.28948974609375,1.22381591796875,36.316856384277344,84.5491714477539,-38.04701232910156
273,17.608642578125,11.4898681640625,-8.14056396484375,0.45745849609375,-0.26788330078125,1.25909423828125,36.316856384277344,84.5491714477539,-38.04701232910156
274,-3.15093994140625,29.6173095703125,-8.1787109375,0.47027587890625,-0.24517822265625,1.1466064453125,36.316856384277344,84.5491714477539,-38.04701232910156
275,-11.02447509765625,45.86029052734375,-8.1634521484375,0.50360107421875,-0.0906982421875,1.046630859375,36.316856384277344,84.5491714477539,-38.04701232910156
276,-23.97918701171875,47.1038818359375,-8.03375244140625,0.49774169921875,0.03399658203125,0.97100830078125,36.316856384277344,84.5491714477539,-38.04701232910156
277,-34.027099609375,39.14642333984375,-8.14056396484375,0.5458984375,-0.024169921875,0.8701171875,36.316856384277344,84.5491714477539,-38.04701232910156
278,-26.81732177734375,40.09246826171875,-7.95745849609375,0.5823974609375,-0.10333251953125,0.82562255859375,36.316856384277344,84.5491714477539,-38.04701232910156
279,-12.0086669921875,49.346923828125,-7.9803466796875,0.5736083984375,-0.1297607421875,0.822021484375,36.316856384277344,84.5491714477539,-38.04701232910156
280,-1.59454345703125,51.7120361328125,-8.148193359375,0.510498046875,-0.0732421875,0.7950439453125,28.383560180664062,86.14109802246094,-39.57568359375
281,3.4637451171875,44.0521240234375,-7.9498291015625,0.40411376953125,0.04156494140625,0.76593017578125,28.383560180664062,86.14109802246094,-39.57568359375
282,13.0615234375,39.154052734375,-8.04901123046875,0.3062744140625,0.13031005859375,0.7613525390625,28.383560180664062,86.14109802246094,-39.57568359375
283,26.93939208984375,42.41943359375,-8.0108642578125,0.286865234375,0.13177490234375,0.81890869140625,28.383560180664062,86.14109802246094,-39.57568359375
284,31.50177001953125,46.68426513671875,-8.04901123046875,0.15777587890625,0.1561279296875,0.9466552734375,28.383560180664062,86.14109802246094,-39.57568359375
285,16.754150390625,48.9349365234375,-7.8887939453125,0.01300048828125,0.2393798828125,0.93865966796875,28.383560180664062,86.14109802246094,-39.57568359375
286,5.18035888671875,55.48858642578125,-8.09478759765625,-0.10186767578125,0.34271240234375,0.96734619140625,28.383560180664062,86.14109802246094,-39.57568359375
287,-15.1519775390625,60.27984619140625,-8.04901123046875,-0.059814453125,0.3753662109375,0.9356689453125,28.383560180664062,86.14109802246094,-39.57568359375
288,-31.8603515625,61.7218017578125,-8.01849365234375,0.11102294921875,0.296630859375,0.8323974609375,28.383560180664062,86.14109802246094,-39.57568359375
289,-28.40423583984375,63.385009765625,-8.00323486328125,0.3031005859375,0.1851806640625,0.72943115234375,28.383560180664062,86.14109802246094,-39.57568359375
290,-8.941650390625,62.31689453125,-8.09478759765625,0.4552001953125,0.07708740234375,0.75006103515625,28.383560180664062,86.14109802246094,-39.57568359375
291,5.22613525390625,59.74578857421875,-8.1939697265625,0.445556640625,0.04022216796875,0.82354736328125,28.383560180664062,86.14109802246094,-39.57568359375
292,6.24847412109375,62.2711181640625,-8.06427001953125,0.26263427734375,0.1766357421875,0.830810546875,28.383560180664062,86.14109802246094,-39.57568359375
293,1.4190673828125,62.93487548828125,-7.965087890625,0.08758544921875,0.32916259765625,0.82196044921875,27.50208282470703,84.9029312133789,-39.74553680419922
294,2.8228759765625,64.27001953125,-8.026123046875,0.052490234375,0.379638671875,0.8262939453125,27.50208282470703,84.9029312133789,-39.74553680419922
295,17.8070068359375,72.4334716796875,-8.148193359375,0.203125,0.3145751953125,0.8453369140625,27.50208282470703,84.9029312133789,-39.74553680419922
296,38.0401611328125,90.63720703125,-8.056640625,0.343017578125,0.2060546875,0.91839599609375,27.50208282470703,84.9029312133789,-39.74553680419922
297,45.50933837890625,114.837646484375,-8.056640625,0.4327392578125,0.189453125,0.94097900390625,27.50208282470703,84.9029312133789,-39.74553680419922
298,33.9202880859375,129.24957275390625,-7.9193115234375,0.43414306640625,0.196044921875,0.878173828125,27.50208282470703,84.9029312133789,-39.74553680419922
299,10.9405517578125,126.04522705078125,-8.17108154296875,0.4410400390625,0.1986083984375,0.71728515625,27.50208282470703,84.9029312133789,-39.74553680419922
300,-0.29754638671875,111.907958984375,-8.2244873046875,0.489013671875,0.18243408203125,0.5648193359375,27.50208282470703,84.9029312133789,-39.74553680419922
301,2.3651123046875,94.49005126953125,-8.1634521484375,0.51263427734375,0.18927001953125,0.48760986328125,27.50208282470703,84.9029312133789,-39.74553680419922
302,12.30621337890625,74.40948486328125,-8.209228515625,0.56451416015625,0.20452880859375,0.44915771484375,27.50208282470703,84.9029312133789,-39.74553680419922
303,29.68597412109375,57.403564453125,-8.0718994140625,0.656982421875,0.17041015625,0.50250244140625,27.50208282470703,84.9029312133789,-39.74553680419922
304,46.62322998046875,45.12786865234375,-7.99560546875,0.6749267578125,0.1495361328125,0.59124755859375,27.50208282470703,84.9029312133789,-39.74553680419922
305,58.81500244140625,37.1246337890625,-8.0413818359375,0.6451416015625,0.162109375,0.6666259765625,21.15544891357422,84.9029312133789,-39.066123962402344
306,66.5283203125,33.21075439453125,-7.98797607421875,0.6044921875,0.16961669921875,0.73126220703125,21.15544891357422,84.9029312133789,-39.066123962402344
307,65.3228759765625,33.43963623046875,-8.0413818359375,0.560791015625,0.2027587890625,0.81903076171875,21.15544891357422,84.9029312133789,-39.066123962402344
308,52.26898193359375,33.65325927734375,-7.9345703125,0.5343017578125,0.1944580078125,0.88433837890625,21.15544891357422,84.9029312133789,-39.066123962402344
309,32.96661376953125,31.80694580078125,-7.843017578125,0.50830078125,0.16748046875,0.94244384765625,21.15544891357422,84.9029312133789,-39.066123962402344
310,9.07135009765625,29.9224853515625,-7.9498291015625,0.51104736328125,0.18585205078125,1.00750732421875,21.15544891357422,84.9029312133789,-39.066123962402344
311,-16.54052734375,27.32086181640625,-7.98797607421875,0.5177001953125,0.2010498046875,1.0560302734375,21.15544891357422,84.9029312133789,-39.066123962402344
312,-37.28485107421875,28.2440185546875,-7.92694091796875,0.509521484375,0.16864013671875,1.0382080078125,21.15544891357422,84.9029312133789,-39.066123962402344
313,-43.3502197265625,38.91754150390625,-7.9803466796875,0.4991455078125,0.15057373046875,0.98956298828125,21.15544891357422,84.9029312133789,-39.066123962402344
314,-37.628173828125,56.09893798828125,-8.11767578125,0.45367431640625,0.13665771484375,0.96697998046875,21.15544891357422,84.9029312133789,-39.066123962402344
315,-31.0211181640625,73.24981689453125,-7.91168212890625,0.31939697265625,0.142822265625,0.95257568359375,21.15544891357422,84.9029312133789,-39.066123962402344
316,-32.3028564453125,87.0513916015625,-7.80487060546875,0.1014404296875,0.24884033203125,0.93096923828125,21.15544891357422,84.9029312133789,-39.066123962402344
317,-38.53607177734375,94.146728515625,-7.80487060546875,-0.06683349609375,0.3726806640625,0.8304443359375,28.030969619750977,83.66476440429688,-39.91538619995117
318,-31.524658203125,99.91455078125,-8.0108642578125,-0.17730712890625,0.46875,0.71533203125,28.030969619750977,83.66476440429688,-39.91538619995117
319,-15.23590087890625,107.70416259765625,-8.0108642578125,-0.25115966796875,0.56402587890625,0.70660400390625,28.030969619750977,83.66476440429688,-39.91538619995117
320,-13.60321044921875,109.19189453125,-7.92694091796875,-0.27398681640625,0.6746826171875,0.73175048828125,28.030969619750977,83.66476440429688,-39.91538619995117
321,-32.745361328125,98.602294921875,-8.087158203125,-0.233642578125,0.71246337890625,0.742431640625,28.030969619750977,83.66476440429688,-39.91538619995117
322,-62.8662109375,82.82470703125,-8.087158203125,-0.14605712890625,0.65228271484375,0.6903076171875,28.030969619750977,83.66476440429688,-39.91538619995117
323,-85.67047119140625,69.51141357421875,-7.88116455078125,-0.05303955078125,0.58453369140625,0.57342529296875,28.030969619750977,83.66476440429688,-39.91538619995117
324,-93.80340576171875,58.40301513671875,-7.92694091796875,0.0391845703125,0.52166748046875,0.4632568359375,28.030969619750977,83.66476440429688,-39.91538619995117
325,-87.83721923828125,47.9888916015625,-8.026123046875,0.1278076171875,0.48529052734375,0.38079833984375,28.030969619750977,83.66476440429688,-39.91538619995117
326,-72.5555419921875,38.00201416015625,-8.0718994140625,0.21612548828125,0.46282958984375,0.367431640625,28.030969619750977,83.66476440429688,-39.91538619995117
327,-55.10711669921875,28.6407470703125,-8.026123046875,0.30572509765625,0.4383544921875,0.42120361328125,28.030969619750977,83.66476440429688,-39.91538619995117
328,-43.39599609375,20.4010009765625,-7.9803466796875,0.365234375,0.41998291015625,0.5269775390625,28.030969619750977,83.66476440429688,-39.91538619995117
329,-39.07012939453125,16.59393310546875,-7.97271728515625,0.3685302734375,0.39141845703125,0.58746337890625,28.030969619750977,83.66476440429688,-39.91538619995117
330,-35.736083984375,20.53070068359375,-7.94219970703125,0.26611328125,0.39892578125,0.6142578125,31.027992248535156,82.07283782958984,-35.329368591308594
331,-33.538818359375,29.24346923828125,-8.0413818359375,0.14776611328125,0.44586181640625,0.6072998046875,31.027992248535156,82.07283782958984,-35.329368591308594
332,-28.45001220703125,41.72515869140625,-7.99560546875,0.080078125,0.49005126953125,0.59259033203125,31.027992248535156,82.07283782958984,-35.329368591308594
333,-24.5513916015625,52.83355712890625,-7.97271728515625,0.04595947265625,0.5308837890625,0.61981201171875,31.027992248535156,82.07283782958984,-35.329368591308594
334,-31.30340576171875,57.9986572265625,-7.85064697265625,0.03485107421875,0.5322265625,0.60211181640625,31.027992248535156,82.07283782958984,-35.329368591308594
335,-38.81072998046875,60.38665771484375,-7.9498291015625,0.04876708984375,0.48779296875,0.53253173828125,31.027992248535156,82.07283782958984,-35.329368591308594
336,-38.39111328125,62.042236328125,-8.1329345703125,0.08721923828125,0.4720458984375,0.45391845703125,31.027992248535156,82.07283782958984,-35.329368591308594
337,-33.0963134765625,62.8662109375,-8.026123046875,0.12451171875,0.4595947265625,0.43170166015625,31.027992248535156,82.07283782958984,-35.329368591308594
338,-32.745361328125,62.43133544921875,-8.06427001953125,0.13751220703125,0.44049072265625,0.42364501953125,31.027992248535156,82.07283782958984,-35.329368591308594
339,-39.95513916015625,59.5855712890625,-7.9345703125,0.12451171875,0.39825439453125,0.42431640625,31.027992248535156,82.07283782958984,-35.329368591308594
340,-53.40576171875,53.41339111328125,-8.04901123046875,0.06597900390625,0.40045166015625,0.42022705078125,31.027992248535156,82.07283782958984,-35.329368591308594
341,-69.915771484375,45.013427734375,-7.85064697265625,0.00341796875,0.42822265625,0.3770751953125,31.027992248535156,82.07283782958984,-35.329368591308594
342,-77.9876708984375,38.4063720703125,-8.026123046875,-0.044189453125,0.44183349609375,0.28662109375,35.25908279418945,79.24273681640625,-31.592605590820312
343,-70.3887939453125,31.10504150390625,-7.98797607421875,-0.0894775390625,0.47186279296875,0.19012451171875,35.25908279418945,79.24273681640625,-31.592605590820312
344,-51.36871337890625,19.0887451171875,-7.94219970703125,-0.1085205078125,0.5115966796875,0.14080810546875,35.25908279418945,79.24273681640625,-31.592605590820312
345,-26.4892578125,6.76727294921875,-8.1024169921875,-0.09417724609375,0.5064697265625,0.14178466796875,35.25908279418945,79.24273681640625,-31.592605590820312
346,-1.31988525390625,-0.64849853515625,-8.04901123046875,-0.0372314453125,0.45916748046875,0.1993408203125,35.25908279418945,79.24273681640625,-31.592605590820312
347,13.1378173828125,-6.53839111328125,-7.9345703125,-0.0185546875,0.41424560546875,0.30340576171875,35.25908279418945,79.24273681640625,-31.592605590820312
348,4.69207763671875,-13.3056640625,-7.97271728515625,-0.13336181640625,0.4014892578125,0.43017578125,35.25908279418945,79.24273681640625,-31.592605590820312
349,-29.2816162109375,-23.92578125,-8.07952880859375,-0.2305908203125,0.4461669921875,0.3895263671875,35.25908279418945,79.24273681640625,-31.592605590820312
350,-51.01776123046875,-33.4930419921875,-7.9345703125,-0.2376708984375,0.50653076171875,0.3045654296875,35.25908279418945,79.24273681640625,-31.592605590820312
351,-54.05426025390625,-38.87176513671875,-8.11004638671875,-0.201171875,0.47723388671875,0.29180908203125,35.25908279418945,79.24273681640625,-31.592605590820312
352,-50.74310302734375,-39.794921875,-8.148193359375,-0.1513671875,0.4097900390625,0.31494140625,35.25908279418945,79.24273681640625,-31.592605590820312
353,-44.7540283203125,-41.8853759765625,-8.1329345703125,-0.111328125,0.34991455078125,0.31036376953125,35.25908279418945,79.24273681640625,-31.592605590820312
354,-31.31866455078125,-47.05047607421875,-8.12530517578125,-0.16766357421875,0.342041015625,0.3421630859375,35.25908279418945,79.24273681640625,-31.592605590820312
355,-16.357421875,-47.47772216796875,-8.03375244140625,-0.2564697265625,0.365234375,0.39434814453125,41.429420471191406,71.99060821533203,-31.422754287719727
356,-0.9918212890625,-38.5589599609375,-8.01849365234375,-0.3240966796875,0.407958984375,0.4307861328125,41.429420471191406,71.99060821533203,-31.422754287719727
357,8.96453857421875,-25.604248046875,-8.0108642578125,-0.34710693359375,0.4263916015625,0.4425048828125,41.429420471191406,71.99060821533203,-31.422754287719727
358,9.21630859375,-17.98248291015625,-7.9193115234375,-0.3203125,0.37353515625,0.4000244140625,41.429420471191406,71.99060821533203,-31.422754287719727
359,6.34765625,-19.37103271484375,-8.0413818359375,-0.2913818359375,0.3118896484375,0.36383056640625,41.429420471191406,71.99060821533203,-31.422754287719727
360,-0.3814697265625,-28.99169921875,-8.21685791015625,-0.31787109375,0.27459716796875,0.39434814453125,41.429420471191406,71.99060821533203,-31.422754287719727
361,-16.47186279296875,-43.09844970703125,-8.09478759765625,-0.37310791015625,0.2637939453125,0.4615478515625,41.429420471191406,71.99060821533203,-31.422754287719727
362,-37.872314453125,-57.2662353515625,-8.11767578125,-0.41552734375,0.24627685546875,0.51885986328125,41.429420471191406,71.99060821533203,-31.422754287719727
363,-55.96160888671875,-67.32177734375,-7.99560546875,-0.419921875,0.18560791015625,0.5550537109375,41.429420471191406,71.99060821533203,-31.422754287719727
364,-65.25421142578125,-70.4498291015625,-7.904052734375,-0.47320556640625,0.16754150390625,0.5908203125,41.429420471191406,71.99060821533203,-31.422754287719727
365,-65.7196044921875,-66.7877197265625,-7.98797607421875,-0.5692138671875,0.212890625,0.58184814453125,41.429420471191406,71.99060821533203,-31.422754287719727
366,-54.38995361328125,-57.22808837890625,-7.95745849609375,-0.64752197265625,0.24554443359375,0.57318115234375,41.429420471191406,71.99060821533203,-31.422754287719727
367,-36.09466552734375,-43.64013671875,-7.9498291015625,-0.68896484375,0.28656005859375,0.59918212890625,45.83680725097656,63.32343673706055,-31.93231201171875
368,-21.94976806640625,-28.99932861328125,-7.88116455078125,-0.67840576171875,0.27850341796875,0.64971923828125,45.83680725097656,63.32343673706055,-31.93231201171875
369,-19.775390625,-18.57757568359375,-8.1024169921875,-0.62646484375,0.18231201171875,0.678955078125,45.83680725097656,63.32343673706055,-31.93231201171875
370,-26.17645263671875,-12.603759765625,-8.0718994140625,-0.56689453125,0.08154296875,0.67022705078125,45.83680725097656,63.32343673706055,-31.93231201171875
371,-38.51318359375,-12.359619140625,-7.98797607421875,-0.51654052734375,0.036865234375,0.6595458984375,45.83680725097656,63.32343673706055,-31.93231201171875
372,-54.229736328125,-17.75360107421875,-7.87353515625,-0.51336669921875,0.0242919921875,0.64990234375,45.83680725097656,63.32343673706055,-31.93231201171875
373,-67.57354736328125,-22.39227294921875,-8.03375244140625,-0.54443359375,-0.006103515625,0.6260986328125,45.83680725097656,63.32343673706055,-31.93231201171875
374,-73.455810546875,-22.77374267578125,-8.026123046875,-0.56884765625,-0.03204345703125,0.61541748046875,45.83680725097656,63.32343673706055,-31.93231201171875
375,-75.30975341796875,-19.0277099609375,-7.99560546875,-0.586669921875,-0.0511474609375,0.593017578125,45.83680725097656,63.32343673706055,-31.93231201171875
376,-71.4111328125,-18.218994140625,-7.9345703125,-0.5924072265625,-0.05426025390625,0.5245361328125,45.83680725097656,63.32343673706055,-31.93231201171875
377,-57.0526123046875,-20.1568603515625,-8.04901123046875,-0.60546875,-0.0853271484375,0.5010986328125,45.83680725097656,63.32343673706055,-31.93231201171875
378,-36.9110107421875,-21.6217041015625,-8.148193359375,-0.62139892578125,-0.15069580078125,0.5166015625,45.83680725097656,63.32343673706055,-31.93231201171875
379,-22.81951904296875,-23.681640625,-8.07952880859375,-0.6837158203125,-0.15582275390625,0.6038818359375,44.95532989501953,48.996070861816406,-33.121280670166016
380,-22.247314453125,-25.4974365234375,-8.09478759765625,-0.7154541015625,-0.137451171875,0.677490234375,44.95532989501953,48.996070861816406,-33.121280670166016
381,-29.388427734375,-24.94049072265625,-7.88116455078125,-0.70831298828125,-0.14202880859375,0.76617431640625,44.95532989501953,48.996070861816406,-33.121280670166016
382,-42.97637939453125,-20.28656005859375,-8.0108642578125,-0.6737060546875,-0.13275146484375,0.82568359375,44.95532989501953,48.996070861816406,-33.121280670166016
383,-58.14361572265625,-12.29095458984375,-7.86590576171875,-0.6329345703125,-0.17034912109375,0.8255615234375,44.95532989501953,48.996070861816406,-33.121280670166016
384,-67.35992431640625,-5.60760498046875,-8.026123046875,-0.60406494140625,-0.21588134765625,0.76422119140625,44.95532989501953,48.996070861816406,-33.121280670166016
385,-68.9849853515625,-2.4871826171875,-7.99560546875,-0.58197021484375,-0.2568359375,0.74993896484375,44.95532989501953,48.996070861816406,-33.121280670166016
386,-70.9686279296875,-3.7689208984375,-8.0108642578125,-0.591796875,-0.29412841796875,0.746826171875,44.95532989501953,48.996070861816406,-33.121280670166016
387,-71.533203125,-3.570556640625,-8.0108642578125,-0.64617919921875,-0.281005859375,0.76904296875,44.95532989501953,48.996070861816406,-33.121280670166016
388,-73.41766357421875,0.762939453125,-8.07952880859375,-0.67724609375,-0.2381591796875,0.75201416015625,44.95532989501953,48.996070861816406,-33.121280670166016
389,-74.48577880859375,3.77655029296875,-7.94219970703125,-0.68243408203125,-0.24151611328125,0.70318603515625,44.95532989501953,48.996070861816406,-33.121280670166016
390,-70.76263427734375,0.16021728515625,-7.9498291015625,-0.64581298828125,-0.28216552734375,0.6251220703125,44.95532989501953,48.996070861816406,-33.121280670166016
391,-54.26025390625,-11.2152099609375,-8.12530517578125,-0.59814453125,-0.31402587890625,0.6197509765625,44.95532989501953,48.996070861816406,-33.121280670166016
392,-32.2113037109375,-18.9208984375,-8.1024169921875,-0.590576171875,-0.29071044921875,0.753173828125,37.90351104736328,39.09072494506836,-35.15951156616211
393,-20.44677734375,-15.4571533203125,-8.0108642578125,-0.62481689453125,-0.276123046875,0.9542236328125,37.90351104736328,39.09072494506836,-35.15951156616211
394,-32.82928466796875,-1.739501953125,-8.148193359375,-0.68359375,-0.2471923828125,1.0474853515625,37.90351104736328,39.09072494506836,-35.15951156616211
395,-54.3212890625,12.27569580078125,-8.1329345703125,-0.68243408203125,-0.26458740234375,0.92559814453125,37.90351104736328,39.09072494506836,-35.15951156616211
396,-59.10491943359375,18.54705810546875,-8.01849365234375,-0.635009765625,-0.33917236328125,0.7318115234375,37.90351104736328,39.09072494506836,-35.15951156616211
397,-44.24285888671875,11.98577880859375,-8.0413818359375,-0.6007080078125,-0.38641357421875,0.6451416015625,37.90351104736328,39.09072494506836,-35.15951156616211
398,-21.90399169921875,-2.34222412109375,-8.12530517578125,-0.624267578125,-0.401611328125,0.69097900390625,37.90351104736328,39.09072494506836,-35.15951156616211
399,1.83868408203125,-6.53839111328125,-7.9498291015625,-0.65374755859375,-0.432373046875,0.80133056640625,37.90351104736328,39.09072494506836,-35.15951156616211
400,14.03045654296875,-2.76947021484375,-7.92694091796875,-0.76019287109375,-0.36895751953125,0.92425537109375,37.90351104736328,39.09072494506836,-35.15951156616211
401,14.16015625,8.17108154296875,-7.94219970703125,-0.82061767578125,-0.32098388671875,0.9110107421875,37.90351104736328,39.09072494506836,-35.15951156616211
402,13.9312744140625,17.5018310546875,-8.087158203125,-0.83349609375,-0.2828369140625,0.81951904296875,37.90351104736328,39.09072494506836,-35.15951156616211
403,26.9317626953125,19.8974609375,-8.00323486328125,-0.7633056640625,-0.337890625,0.7362060546875,37.90351104736328,39.09072494506836,-35.15951156616211
404,50.19378662109375,18.5089111328125,-8.04901123046875,-0.73193359375,-0.3876953125,0.802978515625,31.909469604492188,32.36924362182617,-36.17863082885742
405,64.87274169921875,17.08984375,-7.904052734375,-0.732666015625,-0.40216064453125,0.93438720703125,31.909469604492188,32.36924362182617,-36.17863082885742
406,65.00244140625,16.28875732421875,-7.98797607421875,-0.74908447265625,-0.40869140625,1.06488037109375,31.909469604492188,32.36924362182617,-36.17863082885742
407,54.49676513671875,22.9034423828125,-8.07952880859375,-0.77587890625,-0.4130859375,1.1622314453125,31.909469604492188,32.36924362182617,-36.17863082885742
408,39.54315185546875,36.102294921875,-8.209228515625,-0.80712890625,-0.41290283203125,1.20916748046875,31.909469604492188,32.36924362182617,-36.17863082885742
409,24.8260498046875,59.0057373046875,-7.98797607421875,-0.8466796875,-0.39361572265625,1.20159912109375,31.909469604492188,32.36924362182617,-36.17863082885742
410,8.2550048828125,85.96038818359375,-7.9803466796875,-0.892822265625,-0.3369140625,1.157958984375,31.909469604492188,32.36924362182617,-36.17863082885742
411,-12.63427734375,108.14666748046875,-7.97271728515625,-0.89105224609375,-0.3017578125,1.047607421875,31.909469604492188,32.36924362182617,-36.17863082885742
412,-32.03582763671875,119.92645263671875,-8.17108154296875,-0.8287353515625,-0.34405517578125,0.861083984375,31.909469604492188,32.36924362182617,-36.17863082885742
413,-35.4766845703125,119.56787109375,-8.148193359375,-0.748291015625,-0.43701171875,0.66510009765625,31.909469604492188,32.36924362182617,-36.17863082885742
414,-17.57049560546875,109.04693603515625,-8.07952880859375,-0.7076416015625,-0.437744140625,0.550537109375,31.909469604492188,32.36924362182617,-36.17863082885742
415,12.39013671875,90.75164794921875,-8.1024169921875,-0.74267578125,-0.39404296875,0.6044921875,31.909469604492188,32.36924362182617,-36.17863082885742
416,33.16497802734375,76.25579833984375,-7.8277587890625,-0.83428955078125,-0.31671142578125,0.81982421875,26.97319793701172,33.0767707824707,-35.15951156616211
417,30.66253662109375,73.69232177734375,-8.21685791015625,-0.90264892578125,-0.29315185546875,0.9859619140625,26.97319793701172,33.0767707824707,-35.15951156616211
418,16.76177978515625,85.50262451171875,-8.07952880859375,-0.965087890625,-0.24737548828125,1.03668212890625,26.97319793701172,33.0767707824707,-35.15951156616211
419,-0.51116943359375,107.18536376953125,-8.1024169921875,-1.01226806640625,-0.1873779296875,1.01287841796875,26.97319793701172,33.0767707824707,-35.15951156616211
420,-18.71490478515625,127.166748046875,-8.1634521484375,-1.03253173828125,-0.18145751953125,0.873046875,26.97319793701172,33.0767707824707,-35.15951156616211
421,-22.7813720703125,137.62664794921875,-8.056640625,-0.949462890625,-0.228271484375,0.662353515625,26.97319793701172,33.0767707824707,-35.15951156616211
422,-9.75799560546875,132.83538818359375,-8.15582275390625,-0.8702392578125,-0.25579833984375,0.52520751953125,26.97319793701172,33.0767707824707,-35.15951156616211
423,6.53076171875,115.1580810546875,-8.15582275390625,-0.78973388671875,-0.26544189453125,0.48724365234375,26.97319793701172,33.0767707824707,-35.15951156616211
424,19.2108154296875,89.97344970703125,-8.23974609375,-0.7320556640625,-0.2772216796875,0.51446533203125,26.97319793701172,33.0767707824707,-35.15951156616211
425,25.3753662109375,69.05364990234375,-8.18634033203125,-0.7357177734375,-0.25091552734375,0.59222412109375,26.97319793701172,33.0767707824707,-35.15951156616211
426,23.09417724609375,62.50762939453125,-8.09478759765625,-0.76177978515625,-0.22216796875,0.64825439453125,26.97319793701172,33.0767707824707,-35.15951156616211
427,8.331298828125,61.21063232421875,-8.087158203125,-0.84710693359375,-0.09515380859375,0.62176513671875,26.97319793701172,33.0767707824707,-35.15951156616211
428,6.7138671875,65.94085693359375,-8.12530517578125,-0.8648681640625,-0.0401611328125,0.52130126953125,26.97319793701172,33.0767707824707,-35.15951156616211
429,15.13671875,56.8695068359375,-8.148193359375,-0.83685302734375,0.01495361328125,0.40399169921875,27.678380966186523,34.13805389404297,-31.762460708618164
430,42.0074462890625,41.52679443359375,-8.14056396484375,-0.7540283203125,-0.01220703125,0.29229736328125,27.678380966186523,34.13805389404297,-31.762460708618164
431,73.1964111328125,22.735595703125,-8.17108154296875,-0.7109375,0.01153564453125,0.3221435546875,27.678380966186523,34.13805389404297,-31.762460708618164
432,89.6759033203125,2.777099609375,-8.04901123046875,-0.7052001953125,0.03741455078125,0.49017333984375,27.678380966186523,34.13805389404297,-31.762460708618164
433,83.6944580078125,-10.09368896484375,-7.98797607421875,-0.7320556640625,0.05438232421875,0.72076416015625,27.678380966186523,34.13805389404297,-31.762460708618164
434,65.81878662109375,-9.3994140625,-8.23211669921875,-0.75537109375,0.03924560546875,0.8687744140625,27.678380966186523,34.13805389404297,-31.762460708618164
435,45.1507568359375,-0.58746337890625,-8.148193359375,-0.7716064453125,0.0452880859375,0.9434814453125,27.678380966186523,34.13805389404297,-31.762460708618164
436,26.37481689453125,14.91546630859375,-8.18634033203125,-0.8270263671875,0.0604248046875,0.95989990234375,27.678380966186523,34.13805389404297,-31.762460708618164
437,7.4920654296875,30.28106689453125,-8.15582275390625,-0.90911865234375,0.0960693359375,0.93536376953125,27.678380966186523,34.13805389404297,-31.762460708618164
438,-6.79779052734375,37.2314453125,-8.11004638671875,-0.95184326171875,0.12786865234375,0.821044921875,27.678380966186523,34.13805389404297,-31.762460708618164
439,-4.6539306640625,38.76495361328125,-8.087158203125,-0.92291259765625,0.06915283203125,0.66766357421875,27.678380966186523,34.13805389404297,-31.762460708618164
440,4.37164306640625,34.85870361328125,-8.11004638671875,-0.8770751953125,-0.033203125,0.60760498046875,27.678380966186523,34.13805389404297,-31.762460708618164
441,9.307861328125,19.40155029296875,-8.18634033203125,-0.79608154296875,-0.0638427734375,0.556396484375,35.43537902832031,38.73696517944336,-29.724225997924805
442,19.27947998046875,4.4097900390625,-8.15582275390625,-0.73370361328125,-0.09796142578125,0.545166015625,35.43537902832031,38.73696517944336,-29.724225997924805
443,24.0020751953125,-8.8653564453125,-8.12530517578125,-0.7171630859375,-0.082275390625,0.6064453125,35.43537902832031,38.73696517944336,-29.724225997924805
444,23.74267578125,-12.7410888671875,-8.026123046875,-0.773193359375,-0.02105712890625,0.69329833984375,35.43537902832031,38.73696517944336,-29.724225997924805
445,21.8353271484375,-3.326416015625,-8.1634521484375,-0.81756591796875,0.02545166015625,0.7662353515625,35.43537902832031,38.73696517944336,-29.724225997924805
446,7.77435302734375,3.30352783203125,-8.21685791015625,-0.889892578125,0.07476806640625,0.80340576171875,35.43537902832031,38.73696517944336,-29.724225997924805
447,0.03814697265625,10.32257080078125,-7.965087890625,-0.91180419921875,0.0526123046875,0.72454833984375,35.43537902832031,38.73696517944336,-29.724225997924805
448,-2.08282470703125,11.57379150390625,-8.1329345703125,-0.9478759765625,0.0489501953125,0.65850830078125,35.43537902832031,38.73696517944336,-29.724225997924805
449,-1.13677978515625,11.61956787109375,-8.04901123046875,-0.96307373046875,0.0555419921875,0.6129150390625,35.43537902832031,38.73696517944336,-29.724225997924805
450,-0.42724609375,9.94110107421875,-8.056640625,-0.91058349609375,0.03863525390625,0.58905029296875,35.43537902832031,38.73696517944336,-29.724225997924805
451,-6.7138671875,2.0294189453125,-8.12530517578125,-0.79241943359375,0.00408935546875,0.57769775390625,35.43537902832031,38.73696517944336,-29.724225997924805
452,-11.61956787109375,-9.27734375,-8.11767578125,-0.65618896484375,-0.06610107421875,0.5421142578125,35.43537902832031,38.73696517944336,-29.724225997924805
453,-12.75634765625,-21.3775634765625,-8.18634033203125,-0.56658935546875,-0.06536865234375,0.5379638671875,42.31089782714844,47.050376892089844,-30.23378562927246
454,-14.892578125,-29.96826171875,-8.20159912109375,-0.52392578125,-0.05224609375,0.5728759765625,42.31089782714844,47.050376892089844,-30.23378562927246
455,-17.5628662109375,-34.11865234375,-8.18634033203125,-0.5211181640625,-0.03546142578125,0.6064453125,42.31089782714844,47.050376892089844,-30.23378562927246
456,-25.3753662109375,-36.07177734375,-8.1787109375,-0.6114501953125,0.0029296875,0.65850830078125,42.31089782714844,47.050376892089844,-30.23378562927246
457,-29.13665771484375,-35.5377197265625,-8.14056396484375,-0.70751953125,0.0482177734375,0.628662109375,42.31089782714844,47.050376892089844,-30.23378562927246
458,-24.3988037109375,-35.80474853515625,-8.09478759765625,-0.74810791015625,0.08526611328125,0.60003662109375,42.31089782714844,47.050376892089844,-30.23378562927246
459,-15.52581787109375,-39.43634033203125,-8.1787109375,-0.7000732421875,0.06475830078125,0.59075927734375,42.31089782714844,47.050376892089844,-30.23378562927246
460,-1.6937255859375,-42.022705078125,-8.30841064453125,-0.5517578125,0.01312255859375,0.59423828125,42.31089782714844,47.050376892089844,-30.23378562927246
461,11.48223876953125,-41.8853759765625,-8.209228515625,-0.35906982421875,-0.0322265625,0.63775634765625,42.31089782714844,47.050376892089844,-30.23378562927246
462,12.420654296875,-40.88592529296875,-8.2855224609375,-0.17767333984375,-0.06817626953125,0.72015380859375,42.31089782714844,47.050376892089844,-30.23378562927246
463,-4.89044189453125,-42.85430908203125,-8.20159912109375,-0.0728759765625,-0.109130859375,0.81085205078125,42.31089782714844,47.050376892089844,-30.23378562927246
464,-34.0728759765625,-44.5098876953125,-8.209228515625,-0.0712890625,-0.12109375,0.8553466796875,42.31089782714844,47.050376892089844,-30.23378562927246
465,-55.17578125,-39.10064697265625,-8.1634521484375,-0.17138671875,-0.09307861328125,0.794677734375,42.31089782714844,47.050376892089844,-30.23378562927246
466,-62.17193603515625,-31.82220458984375,-8.24737548828125,-0.41094970703125,-0.02459716796875,0.6883544921875,44.95532989501953,59.60893249511719,-33.80069351196289
467,-48.27880859375,-33.02001953125,-8.12530517578125,-0.57171630859375,0.08984375,0.52978515625,44.95532989501953,59.60893249511719,-33.80069351196289
468,-9.84954833984375,-43.78509521484375,-8.148193359375,-0.53173828125,0.15313720703125,0.435791015625,44.95532989501953,59.60893249511719,-33.80069351196289
469,33.77532958984375,-48.2635498046875,-8.18634033203125,-0.33917236328125,0.07049560546875,0.5491943359375,44.95532989501953,59.60893249511719,-33.80069351196289
470,45.806884765625,-45.6695556640625,-8.06427001953125,-0.1190185546875,0.03515625,0.81732177734375,44.95532989501953,59.60893249511719,-33.80069351196289
471,20.91217041015625,-38.10882568359375,-8.148193359375,0.1124267578125,-0.11468505859375,1.0096435546875,44.95532989501953,59.60893249511719,-33.80069351196289
472,-14.9688720703125,-30.67779541015625,-8.12530517578125,0.31707763671875,-0.1795654296875,1.00048828125,44.95532989501953,59.60893249511719,-33.80069351196289
473,-28.7933349609375,-18.66912841796875,-8.18634033203125,0.4549560546875,-0.27069091796875,0.83203125,44.95532989501953,59.60893249511719,-33.80069351196289
474,-23.529052734375,-16.27349853515625,-8.12530517578125,0.43408203125,-0.25042724609375,0.67596435546875,44.95532989501953,59.60893249511719,-33.80069351196289
475,-10.97869873046875,-28.62548828125,-7.99560546875,0.30352783203125,-0.1580810546875,0.6171875,44.95532989501953,59.60893249511719,-33.80069351196289
476,2.99835205078125,-40.21453857421875,-8.026123046875,0.13043212890625,-0.03076171875,0.6636962890625,44.95532989501953,59.60893249511719,-33.80069351196289
477,9.7503662109375,-41.25213623046875,-7.98797607421875,-0.0050048828125,0.0654296875,0.7958984375,44.95532989501953,59.60893249511719,-33.80069351196289
478,13.9312744140625,-33.782958984375,-8.01849365234375,0.00054931640625,0.1168212890625,0.8895263671875,40.01906204223633,73.4056625366211,-35.15951156616211
479,16.0980224609375,-16.4337158203125,-7.98797607421875,0.0738525390625,0.06884765625,0.95751953125,40.01906204223633,73.4056625366211,-35.15951156616211
480,12.298583984375,-0.2288818359375,-8.1024169921875,0.1064453125,0.145263671875,0.92791748046875,40.01906204223633,73.4056625366211,-35.15951156616211
481,12.02392578125,-0.5950927734375,-8.23211669921875,0.0921630859375,0.1259765625,0.775634765625,40.01906204223633,73.4056625366211,-35.15951156616211
482,25.93994140625,-6.103515625,-8.2244873046875,0.10186767578125,0.05792236328125,0.65899658203125,40.01906204223633,73.4056625366211,-35.15951156616211
483,25.604248046875,-27.15301513671875,-8.12530517578125,0.12115478515625,0.0142822265625,0.71551513671875,40.01906204223633,73.4056625366211,-35.15951156616211
484,21.35467529296875,-46.63848876953125,-8.07952880859375,0.2069091796875,-0.1370849609375,0.7757568359375,40.01906204223633,73.4056625366211,-35.15951156616211
485,23.32305908203125,-52.68096923828125,-8.01849365234375,0.34759521484375,-0.2779541015625,0.8670654296875,40.01906204223633,73.4056625366211,-35.15951156616211
486,32.26470947265625,-45.196533203125,-7.9803466796875,0.47894287109375,-0.38916015625,0.95166015625,40.01906204223633,73.4056625366211,-35.15951156616211
487,31.707763671875,-31.04400634765625,-7.98797607421875,0.52520751953125,-0.36602783203125,1.080810546875,40.01906204223633,73.4056625366211,-35.15951156616211
488,21.72088623046875,-14.50347900390625,-7.965087890625,0.4638671875,-0.24896240234375,1.1556396484375,40.01906204223633,73.4056625366211,-35.15951156616211
489,12.39776611328125,6.08062744140625,-8.0108642578125,0.3929443359375,-0.1351318359375,1.1378173828125,40.01906204223633,73.4056625366211,-35.15951156616211
490,4.5928955078125,21.820068359375,-8.0108642578125,0.2987060546875,-0.06524658203125,1.06610107421875,35.43537902832031,81.89595794677734,-37.537452697753906
491,0.152587890625,27.5421142578125,-8.18634033203125,0.2371826171875,-0.06976318359375,0.968017578125,35.43537902832031,81.89595794677734,-37.537452697753906
492,1.82342529296875,28.20587158203125,-8.09478759765625,0.23974609375,-0.0953369140625,0.884765625,35.43537902832031,81.89595794677734,-37.537452697753906
493,11.138916015625,25.47454833984375,-8.09478759765625,0.322265625,-0.12408447265625,0.8031005859375,35.43537902832031,81.89595794677734,-37.537452697753906
494,26.08489990234375,20.68328857421875,-8.06427001953125,0.4263916015625,-0.1680908203125,0.767822265625,35.43537902832031,81.89595794677734,-37.537452697753906
495,29.6783447265625,11.75689697265625,-8.1024169921875,0.4739990234375,-0.1756591796875,0.83123779296875,35.43537902832031,81.89595794677734,-37.537452697753906
496,30.76934814453125,4.425048828125,-8.12530517578125,0.4742431640625,-0.13909912109375,0.8538818359375,35.43537902832031,81.89595794677734,-37.537452697753906
497,34.21783447265625,3.3111572265625,-8.0718994140625,0.42413330078125,-0.09088134765625,0.91021728515625,35.43537902832031,81.89595794677734,-37.537452697753906
498,34.14154052734375,8.36181640625,-8.18634033203125,0.3553466796875,-0.06170654296875,0.96954345703125,35.43537902832031,81.89595794677734,-37.537452697753906
499,29.42657470703125,15.72418212890625,-8.026123046875,0.27838134765625,-0.03485107421875,0.999755859375,35.43537902832031,81.89595794677734,-37.537452697753906
500,21.61407470703125,21.6522216796875,-8.15582275390625,0.17803955078125,-0.01373291015625,0.9508056640625,35.43537902832031,81.89595794677734,-37.537452697753906
501,21.5301513671875,23.82659912109375,-8.01849365234375,0.142822265625,0.03411865234375,0.8431396484375,35.43537902832031,81.89595794677734,-37.537452697753906
502,25.634765625,21.30889892578125,-8.11767578125,0.20367431640625,0.0166015625,0.78314208984375,35.43537902832031,81.89595794677734,-37.537452697753906
503,27.73284912109375,14.99176025390625,-8.15582275390625,0.35333251953125,-0.0716552734375,0.7767333984375,32.61465072631836,83.31100463867188,-39.23597717285156
504,25.68817138671875,5.30242919921875,-8.2550048828125,0.46270751953125,-0.1160888671875,0.802734375,32.61465072631836,83.31100463867188,-39.23597717285156
505,16.8304443359375,-6.38580322265625,-8.087158203125,0.4337158203125,-0.1195068359375,0.830078125,32.61465072631836,83.31100463867188,-39.23597717285156
506,16.80755615234375,-13.7939453125,-8.026123046875,0.37591552734375,-0.07745361328125,0.81243896484375,32.61465072631836,83.31100463867188,-39.23597717285156
507,16.70074462890625,-17.02880859375,-8.23974609375,0.31396484375,-0.0413818359375,0.86395263671875,32.61465072631836,83.31100463867188,-39.23597717285156
508,16.7999267578125,-16.70074462890625,-8.04901123046875,0.3291015625,-0.0419921875,0.87701416015625,32.61465072631836,83.31100463867188,-39.23597717285156
509,22.7203369140625,-11.9476318359375,-8.01849365234375,0.40338134765625,-0.06964111328125,0.85711669921875,32.61465072631836,83.31100463867188,-39.23597717285156
510,32.47833251953125,-5.76019287109375,-8.0413818359375,0.5400390625,-0.11871337890625,0.8245849609375,32.61465072631836,83.31100463867188,-39.23597717285156
511,42.04559326171875,-5.68389892578125,-8.026123046875,0.71002197265625,-0.19940185546875,0.7679443359375,32.61465072631836,83.31100463867188,-39.23597717285156
512,49.285888671875,-13.17596435546875,-8.00323486328125,0.80072021484375,-0.3057861328125,0.71527099609375,32.61465072631836,83.31100463867188,-39.23597717285156
513,39.703369140625,-26.72576904296875,-8.00323486328125,0.66357421875,-0.3035888671875,0.7886962890625,32.61465072631836,83.31100463867188,-39.23597717285156
514,10.3912353515625,-41.16058349609375,-7.99560546875,0.35821533203125,-0.1734619140625,0.890869140625,32.61465072631836,83.31100463867188,-39.23597717285156
515,-4.8370361328125,-46.539306640625,-8.14056396484375,0.12396240234375,-0.0479736328125,0.833740234375,34.37760543823242,82.24971008300781,-41.27421188354492
516,7.5225830078125,-39.0472412109375,-7.97271728515625,0.02386474609375,0.03253173828125,0.79974365234375,34.37760543823242,82.24971008300781,-41.27421188354492
517,16.6473388671875,-28.43475341796875,-8.01849365234375,0.04779052734375,0.03131103515625,0.86224365234375,34.37760543823242,82.24971008300781,-41.27421188354492
518,26.85546875,-18.76068115234375,-8.11004638671875,0.1959228515625,-0.0413818359375,0.8505859375,34.37760543823242,82.24971008300781,-41.27421188354492
519,39.26849365234375,-13.51165771484375,-8.03375244140625,0.3936767578125,-0.1298828125,0.82623291015625,34.37760543823242,82.24971008300781,-41.27421188354492
520,57.4951171875,-10.9710693359375,-8.148193359375,0.64068603515625,-0.1998291015625,0.80926513671875,34.37760543823242,82.24971008300781,-41.27421188354492
521,66.59698486328125,-2.37274169921875,-8.00323486328125,0.7930908203125,-0.3214111328125,0.987548828125,34.37760543823242,82.24971008300781,-41.27421188354492
522,51.1932373046875,10.223388671875,-7.99560546875,0.79510498046875,-0.3834228515625,1.122314453125,34.37760543823242,82.24971008300781,-41.27421188354492
523,32.85980224609375,23.162841796875,-8.0413818359375,0.70684814453125,-0.354248046875,1.08953857421875,34.37760543823242,82.24971008300781,-41.27421188354492
524,19.6380615234375,34.43145751953125,-8.07952880859375,0.5589599609375,-0.2957763671875,0.995849609375,34.37760543823242,82.24971008300781,-41.27421188354492
525,15.167236328125,45.3948974609375,-7.9193115234375,0.373291015625,-0.2518310546875,0.86834716796875,34.37760543823242,82.24971008300781,-41.27421188354492
526,32.46307373046875,50.37689208984375,-7.95745849609375,0.26910400390625,-0.14532470703125,0.65423583984375,34.37760543823242,82.24971008300781,-41.27421188354492
527,89.752197265625,56.2744140625,-7.94219970703125,0.38232421875,-0.16082763671875,0.48406982421875,42.4871940612793,76.94328308105469,-41.27421188354492
528,132.87353515625,65.6585693359375,-8.03375244140625,0.33782958984375,-0.319091796875,0.71923828125,42.4871940612793,76.94328308105469,-41.27421188354492
529,121.826171875,68.84765625,-7.99560546875,0.20745849609375,-0.31640625,0.94647216796875,42.4871940612793,76.94328308105469,-41.27421188354492
530,87.0208740234375,64.239501953125,-8.03375244140625,0.093505859375,-0.226806640625,0.97515869140625,42.4871940612793,76.94328308105469,-41.27421188354492
531,71.7010498046875,59.47113037109375,-8.11004638671875,0.073974609375,-0.1407470703125,0.83746337890625,42.4871940612793,76.94328308105469,-41.27421188354492
532,78.125,61.0198974609375,-8.00323486328125,0.03802490234375,-0.11163330078125,0.8043212890625,42.4871940612793,76.94328308105469,-41.27421188354492
533,79.3609619140625,66.619873046875,-7.91168212890625,-0.0650634765625,-0.0892333984375,0.86187744140625,42.4871940612793,76.94328308105469,-41.27421188354492
534,68.084716796875,67.0623779296875,-8.07952880859375,-0.12921142578125,-0.03997802734375,0.88604736328125,42.4871940612793,76.94328308105469,-41.27421188354492
535,47.8515625,58.7615966796875,-8.0108642578125,-0.200439453125,-0.04608154296875,0.8704833984375,42.4871940612793,76.94328308105469,-41.27421188354492
536,25.0244140625,47.09625244140625,-8.0108642578125,-0.2530517578125,-0.00799560546875,0.8209228515625,42.4871940612793,76.94328308105469,-41.27421188354492
537,18.05877685546875,30.0140380859375,-8.056640625,-0.2506103515625,0.07293701171875,0.71826171875,42.4871940612793,76.94328308105469,-41.27421188354492
538,62.18719482421875,27.04620361328125,-8.06427001953125,-0.1497802734375,0.11102294921875,0.54217529296875,42.4871940612793,76.94328308105469,-41.27421188354492
539,139.83154296875,40.84014892578125,-7.99560546875,-0.083740234375,0.12188720703125,0.5347900390625,42.4871940612793,76.94328308105469,-41.27421188354492
540,191.558837890625,61.676025390625,-8.0108642578125,-0.0914306640625,0.1513671875,0.73480224609375,47.423465728759766,62.79279327392578,-37.537452697753906
541,183.9599609375,78.857421875,-8.026123046875,-0.11187744140625,0.11285400390625,1.02099609375,47.423465728759766,62.79279327392578,-37.537452697753906
542,129.913330078125,93.3990478515625,-7.8277587890625,-0.08929443359375,0.03717041015625,1.21099853515625,47.423465728759766,62.79279327392578,-37.537452697753906
543,59.5550537109375,107.5286865234375,-7.91168212890625,-0.0244140625,-0.0316162109375,1.24249267578125,47.423465728759766,62.79279327392578,-37.537452697753906
544,-4.98199462890625,114.60113525390625,-8.026123046875,0.01556396484375,-0.06292724609375,1.1414794921875,47.423465728759766,62.79279327392578,-37.537452697753906
545,-47.54638671875,110.52703857421875,-7.86590576171875,-0.021484375,-0.1204833984375,0.92901611328125,47.423465728759766,62.79279327392578,-37.537452697753906
546,-58.57086181640625,104.461669921875,-8.01849365234375,-0.09478759765625,-0.18133544921875,0.7215576171875,47.423465728759766,62.79279327392578,-37.537452697753906
547,-49.6063232421875,93.26934814453125,-8.04901123046875,-0.197509765625,-0.13238525390625,0.58746337890625,47.423465728759766,62.79279327392578,-37.537452697753906
548,-26.4434814453125,80.46722412109375,-8.07952880859375,-0.285888671875,-0.10650634765625,0.5133056640625,47.423465728759766,62.79279327392578,-37.537452697753906
549,8.1329345703125,77.6214599609375,-8.03375244140625,-0.3526611328125,-0.0992431640625,0.4923095703125,47.423465728759766,62.79279327392578,-37.537452697753906
550,38.64288330078125,82.6263427734375,-8.026123046875,-0.3790283203125,-0.09576416015625,0.54302978515625,47.423465728759766,62.79279327392578,-37.537452697753906
551,47.26409912109375,90.62957763671875,-7.965087890625,-0.47723388671875,-0.1776123046875,0.6805419921875,47.423465728759766,62.79279327392578,-37.537452697753906
552,23.529052734375,91.71295166015625,-8.00323486328125,-0.57421875,-0.13043212890625,0.80865478515625,41.95830535888672,44.92780303955078,-33.291133880615234
553,1.617431640625,85.235595703125,-7.94219970703125,-0.6380615234375,-0.04931640625,0.7816162109375,41.95830535888672,44.92780303955078,-33.291133880615234
554,3.88336181640625,86.57073974609375,-8.0108642578125,-0.73052978515625,-0.0972900390625,0.7509765625,41.95830535888672,44.92780303955078,-33.291133880615234
555,20.91217041015625,101.73797607421875,-8.0413818359375,-0.83514404296875,-0.10540771484375,0.771728515625,41.95830535888672,44.92780303955078,-33.291133880615234
556,29.876708984375,129.08172607421875,-7.86590576171875,-0.95452880859375,-0.10516357421875,0.8671875,41.95830535888672,44.92780303955078,-33.291133880615234
557,15.32745361328125,158.54644775390625,-7.9498291015625,-1.05999755859375,-0.0880126953125,0.9481201171875,41.95830535888672,44.92780303955078,-33.291133880615234
558,-1.495361328125,183.81500244140625,-8.00323486328125,-1.06829833984375,-0.0333251953125,0.90252685546875,41.95830535888672,44.92780303955078,-33.291133880615234
559,-1.3427734375,201.7974853515625,-7.904052734375,-0.97802734375,0.0277099609375,0.775146484375,41.95830535888672,44.92780303955078,-33.291133880615234
560,20.89691162109375,214.66827392578125,-8.06427001953125,-0.88055419921875,0.02691650390625,0.67071533203125,41.95830535888672,44.92780303955078,-33.291133880615234
561,59.4482421875,229.339599609375,-8.04901123046875,-0.75811767578125,-0.03582763671875,0.64044189453125,41.95830535888672,44.92780303955078,-33.291133880615234
562,84.1522216796875,249.99237060546875,-8.0718994140625,-0.7474365234375,-0.198486328125,0.73101806640625,41.95830535888672,44.92780303955078,-33.291133880615234
563,65.20843505859375,249.99237060546875,-7.9498291015625,-0.87554931640625,-0.2528076171875,0.81512451171875,41.95830535888672,44.92780303955078,-33.291133880615234
564,19.88983154296875,249.99237060546875,-8.026123046875,-1.01959228515625,-0.1851806640625,0.71905517578125,41.95830535888672,44.92780303955078,-33.291133880615234
565,1.02996826171875,240.2496337890625,-7.9345703125,-1.1234130859375,-0.2132568359375,0.5203857421875,23.447290420532227,36.9681510925293,-30.74334144592285
566,22.60589599609375,226.40228271484375,-8.087158203125,-1.083251953125,-0.09674072265625,0.3021240234375,23.447290420532227,36.9681510925293,-30.74334144592285
567,69.32830810546875,214.35546875,-8.0413818359375,-1.0562744140625,-0.01800537109375,0.23980712890625,23.447290420532227,36.9681510925293,-30.74334144592285
568,104.75921630859375,201.66015625,-8.1939697265625,-1.022705078125,0.0045166015625,0.3587646484375,23.447290420532227,36.9681510925293,-30.74334144592285
569,117.5689697265625,186.21826171875,-7.94219970703125,-0.95159912109375,0.05596923828125,0.52935791015625,23.447290420532227,36.9681510925293,-30.74334144592285
570,123.75640869140625,181.8389892578125,-7.99560546875,-0.893798828125,0.06756591796875,0.70208740234375,23.447290420532227,36.9681510925293,-30.74334144592285
571,122.6959228515625,194.87762451171875,-8.1024169921875,-0.85650634765625,0.08984375,0.8685302734375,23.447290420532227,36.9681510925293,-30.74334144592285
572,102.23388671875,221.73309326171875,-8.2244873046875,-0.94354248046875,0.04864501953125,1.0274658203125,23.447290420532227,36.9681510925293,-30.74334144592285
573,70.0531005859375,249.99237060546875,-8.01849365234375,-1.03546142578125,0.0076904296875,1.0208740234375,23.447290420532227,36.9681510925293,-30.74334144592285
574,55.13763427734375,249.99237060546875,-8.0413818359375,-1.06182861328125,0.004638671875,0.82733154296875,23.447290420532227,36.9681510925293,-30.74334144592285
575,64.24713134765625,249.99237060546875,-7.9193115234375,-1.04351806640625,-0.00286865234375,0.58831787109375,23.447290420532227,36.9681510925293,-30.74334144592285
576,92.3614501953125,249.99237060546875,-8.11767578125,-0.89776611328125,-0.0235595703125,0.3619384765625,23.447290420532227,36.9681510925293,-30.74334144592285
577,124.48883056640625,249.99237060546875,-8.0108642578125,-0.8818359375,-0.08929443359375,0.29583740234375,10.754020690917969,41.92082595825195,-30.403636932373047
578,138.77105712890625,249.99237060546875,-7.98797607421875,-0.9970703125,-0.0743408203125,0.3533935546875,10.754020690917969,41.92082595825195,-30.403636932373047
579,149.81842041015625,249.99237060546875,-7.97271728515625,-1.062255859375,0.029052734375,0.33795166015625,10.754020690917969,41.92082595825195,-30.403636932373047
580,158.7677001953125,249.93896484375,-8.03375244140625,-1.08392333984375,0.11376953125,0.37225341796875,10.754020690917969,41.92082595825195,-30.403636932373047
581,152.3284912109375,245.0714111328125,-7.99560546875,-1.12353515625,0.166259765625,0.44696044921875,10.754020690917969,41.92082595825195,-30.403636932373047
582,140.55633544921875,241.668701171875,-8.06427001953125,-1.13653564453125,0.142578125,0.42059326171875,10.754020690917969,41.92082595825195,-30.403636932373047
583,130.86700439453125,235.321044921875,-8.0718994140625,-1.15185546875,0.0615234375,0.29815673828125,10.754020690917969,41.92082595825195,-30.403636932373047
584,137.0697021484375,216.97998046875,-8.20159912109375,-1.1702880859375,-0.00653076171875,0.07623291015625,10.754020690917969,41.92082595825195,-30.403636932373047
585,164.947509765625,190.673828125,-7.97271728515625,-1.20068359375,0.0018310546875,-0.0892333984375,10.754020690917969,41.92082595825195,-30.403636932373047
586,206.33697509765625,172.4700927734375,-8.11767578125,-1.21295166015625,0.0943603515625,-0.09136962890625,10.754020690917969,41.92082595825195,-30.403636932373047
587,228.03497314453125,167.30499267578125,-8.21685791015625,-1.23309326171875,0.16339111328125,0.10870361328125,10.754020690917969,41.92082595825195,-30.403636932373047
588,214.324951171875,170.69244384765625,-8.09478759765625,-1.22003173828125,0.16876220703125,0.2984619140625,10.754020690917969,41.92082595825195,-30.403636932373047
589,178.6651611328125,175.55999755859375,-8.01849365234375,-1.19927978515625,0.08905029296875,0.326416015625,1.7629541158676147,48.81918716430664,-33.63084030151367
590,150.24566650390625,176.78070068359375,-8.04901123046875,-1.15887451171875,0.051025390625,0.14837646484375,1.7629541158676147,48.81918716430664,-33.63084030151367
591,144.4244384765625,172.7294921875,-7.9498291015625,-1.1309814453125,-0.047119140625,-0.11102294921875,1.7629541158676147,48.81918716430664,-33.63084030151367
592,153.4423828125,155.63201904296875,-8.00323486328125,-1.14776611328125,-0.11285400390625,-0.3343505859375,1.7629541158676147,48.81918716430664,-33.63084030151367
593,166.839599609375,120.42236328125,-8.14056396484375,-1.21807861328125,-0.114990234375,-0.4761962890625,1.7629541158676147,48.81918716430664,-33.63084030151367
594,180.328369140625,81.18438720703125,-7.965087890625,-1.27142333984375,-0.07049560546875,-0.52801513671875,1.7629541158676147,48.81918716430664,-33.63084030151367
595,207.1685791015625,40.36712646484375,-7.8887939453125,-1.24371337890625,0.016845703125,-0.58392333984375,1.7629541158676147,48.81918716430664,-33.63084030151367
596,249.99237060546875,14.82391357421875,-8.12530517578125,-1.0919189453125,0.11810302734375,-0.66845703125,1.7629541158676147,48.81918716430664,-33.63084030151367
597,249.99237060546875,3.31878662109375,-8.09478759765625,-1.0361328125,0.06817626953125,-0.5546875,1.7629541158676147,48.81918716430664,-33.63084030151367
598,249.99237060546875,-0.1678466796875,-8.0718994140625,-1.06005859375,0.06939697265625,-0.3687744140625,1.7629541158676147,48.81918716430664,-33.63084030151367
599,249.99237060546875,-8.15582275390625,-8.2550048828125,-1.0548095703125,-0.0277099609375,-0.33819580078125,1.7629541158676147,48.81918716430664,-33.63084030151367
600,196.6705322265625,-33.63037109375,-8.12530517578125,-1.00640869140625,-0.043212890625,-0.50592041015625,1.7629541158676147,48.81918716430664,-33.63084030151367
601,146.8505859375,-70.25146484375,-8.1024169921875,-1.023681640625,-0.1500244140625,-0.67791748046875,1.7629541158676147,48.81918716430664,-33.63084030151367
602,124.82452392578125,-112.67852783203125,-7.9498291015625,-0.98797607421875,-0.08441162109375,-0.8306884765625,1.7629541158676147,49.526710510253906,-30.913196563720703
603,127.96783447265625,-162.384033203125,-8.04901123046875,-0.93988037109375,0.08587646484375,-0.9427490234375,1.7629541158676147,49.526710510253906,-30.913196563720703
604,151.87835693359375,-210.8612060546875,-8.148193359375,-0.8831787109375,0.22772216796875,-0.965576171875,1.7629541158676147,49.526710510253906,-30.913196563720703
605,188.751220703125,-246.92535400390625,-8.1634521484375,-0.8365478515625,0.2996826171875,-0.89892578125,1.7629541158676147,49.526710510253906,-30.913196563720703
606,217.010498046875,-250.0,-8.07952880859375,-0.8487548828125,0.32769775390625,-0.7288818359375,1.7629541158676147,49.526710510253906,-30.913196563720703
607,226.318359375,-250.0,-8.17108154296875,-0.8372802734375,0.23089599609375,-0.53704833984375,1.7629541158676147,49.526710510253906,-30.913196563720703
608,224.0447998046875,-233.5205078125,-8.14056396484375,-0.78668212890625,0.1790771484375,-0.37890625,1.7629541158676147,49.526710510253906,-30.913196563720703
609,212.3870849609375,-195.037841796875,-8.0718994140625,-0.6817626953125,0.18939208984375,-0.27899169921875,1.7629541158676147,49.526710510253906,-30.913196563720703
610,191.9403076171875,-156.19659423828125,-8.24737548828125,-0.61810302734375,0.23828125,-0.19915771484375,1.7629541158676147,49.526710510253906,-30.913196563720703
611,166.80145263671875,-129.150390625,-8.12530517578125,-0.51507568359375,0.32855224609375,-0.19415283203125,1.7629541158676147,49.526710510253906,-30.913196563720703
612,143.68438720703125,-115.83709716796875,-8.1939697265625,-0.43865966796875,0.398681640625,-0.2196044921875,1.7629541158676147,49.526710510253906,-30.913196563720703
613,121.04034423828125,-116.60003662109375,-8.0413818359375,-0.4267578125,0.493408203125,-0.23248291015625,1.7629541158676147,49.526710510253906,-30.913196563720703
614,101.98974609375,-124.44305419921875,-8.0718994140625,-0.38873291015625,0.55999755859375,-0.260498046875,17.805835723876953,47.22726058959961,-22.590412139892578
615,93.72711181640625,-135.7879638671875,-7.97271728515625,-0.299072265625,0.63580322265625,-0.29864501953125,17.805835723876953,47.22726058959961,-22.590412139892578
616,93.29986572265625,-145.751953125,-7.9498291015625,-0.2783203125,0.5025634765625,-0.28546142578125,17.805835723876953,47.22726058959961,-22.590412139892578
617,100.189208984375,-143.77593994140625,-8.18634033203125,-0.2222900390625,0.48297119140625,-0.27099609375,17.805835723876953,47.22726058959961,-22.590412139892578
618,104.18701171875,-133.9263916015625,-8.0413818359375,-0.15643310546875,0.46722412109375,-0.25,17.805835723876953,47.22726058959961,-22.590412139892578
619,100.2197265625,-121.40655517578125,-8.1939697265625,-0.14239501953125,0.3907470703125,-0.218505859375,17.805835723876953,47.22726058959961,-22.590412139892578
620,98.93035888671875,-108.77227783203125,-8.26263427734375,-0.11236572265625,0.27587890625,-0.2403564453125,17.805835723876953,47.22726058959961,-22.590412139892578
621,122.6806640625,-100.83770751953125,-8.35418701171875,0.02410888671875,0.218994140625,-0.36480712890625,17.805835723876953,47.22726058959961,-22.590412139892578
622,184.8907470703125,-98.19793701171875,-8.04901123046875,0.20367431640625,0.14990234375,-0.52191162109375,17.805835723876953,47.22726058959961,-22.590412139892578
623,249.99237060546875,-105.5145263671875,-8.11767578125,0.36212158203125,0.11181640625,-0.63604736328125,17.805835723876953,47.22726058959961,-22.590412139892578
624,249.99237060546875,-123.43597412109375,-8.09478759765625,0.4493408203125,0.05859375,-0.631103515625,17.805835723876953,47.22726058959961,-22.590412139892578
625,249.99237060546875,-147.11761474609375,-7.99560546875,0.41729736328125,-0.0020751953125,-0.47674560546875,17.805835723876953,47.22726058959961,-22.590412139892578
626,249.99237060546875,-168.121337890625,-7.94219970703125,0.36383056640625,-0.0823974609375,-0.27484130859375,28.030969619750977,61.023983001708984,-22.930116653442383
627,249.99237060546875,-184.4940185546875,-7.98797607421875,0.29296875,-0.13946533203125,-0.02490234375,28.030969619750977,61.023983001708984,-22.930116653442383
628,249.99237060546875,-199.04327392578125,-8.17108154296875,0.2237548828125,-0.13848876953125,0.2364501953125,28.030969619750977,61.023983001708984,-22.930116653442383
629,249.99237060546875,-215.46173095703125,-7.92694091796875,0.168212890625,-0.1005859375,0.47760009765625,28.030969619750977,61.023983001708984,-22.930116653442383
630,249.99237060546875,-237.1978759765625,-8.23211669921875,0.13909912109375,-0.08538818359375,0.65802001953125,28.030969619750977,61.023983001708984,-22.930116653442383
631,249.99237060546875,-250.0,-7.965087890625,0.15570068359375,-0.08856201171875,0.7342529296875,28.030969619750977,61.023983001708984,-22.930116653442383
632,249.99237060546875,-250.0,-7.97271728515625,0.1834716796875,-0.1112060546875,0.74041748046875,28.030969619750977,61.023983001708984,-22.930116653442383
633,249.99237060546875,-250.0,-8.14056396484375,0.18890380859375,-0.156982421875,0.75091552734375,28.030969619750977,61.023983001708984,-22.930116653442383
634,249.99237060546875,-250.0,-7.97271728515625,0.16143798828125,-0.19873046875,0.8348388671875,28.030969619750977,61.023983001708984,-22.930116653442383
635,249.99237060546875,-250.0,-8.01849365234375,0.08685302734375,-0.189208984375,1.02069091796875,28.030969619750977,61.023983001708984,-22.930116653442383
636,249.99237060546875,-250.0,-8.11767578125,0.0059814453125,-0.1026611328125,1.3546142578125,28.030969619750977,61.023983001708984,-22.930116653442383
637,249.99237060546875,-245.1171875,-7.98797607421875,-0.01953125,-0.04766845703125,1.87420654296875,28.030969619750977,61.023983001708984,-22.930116653442383
638,163.50555419921875,-196.14410400390625,-8.07952880859375,0.0948486328125,-0.08721923828125,1.99993896484375,28.030969619750977,61.023983001708984,-22.930116653442383
639,97.1527099609375,-138.24462890625,-8.1329345703125,0.19708251953125,-0.14984130859375,1.83099365234375,31.204288482666016,84.01852416992188,-40.59480285644531
640,68.0084228515625,-83.90045166015625,-8.0718994140625,0.20257568359375,-0.16162109375,1.59515380859375,31.204288482666016,84.01852416992188,-40.59480285644531
641,53.375244140625,-43.304443359375,-8.00323486328125,0.17510986328125,-0.10882568359375,1.3565673828125,31.204288482666016,84.01852416992188,-40.59480285644531
642,56.2286376953125,-23.17047119140625,-7.965087890625,0.17132568359375,-0.08306884765625,1.078125,31.204288482666016,84.01852416992188,-40.59480285644531
643,76.46942138671875,-20.42388916015625,-7.965087890625,0.183837890625,-0.10382080078125,0.88421630859375,31.204288482666016,84.01852416992188,-40.59480285644531
644,99.81536865234375,-29.19769287109375,-8.026123046875,0.14666748046875,-0.117431640625,0.8223876953125,31.204288482666016,84.01852416992188,-40.59480285644531
645,110.5194091796875,-45.318603515625,-8.04901123046875,0.08221435546875,-0.1378173828125,0.88134765625,31.204288482666016,84.01852416992188,-40.59480285644531
646,107.4066162109375,-60.7452392578125,-7.87353515625,0.02996826171875,-0.1024169921875,0.9459228515625,31.204288482666016,84.01852416992188,-40.59480285644531
647,99.05242919921875,-70.526123046875,-8.1787109375,0.0267333984375,-0.08935546875,1.0035400390625,31.204288482666016,84.01852416992188,-40.59480285644531
648,92.132568359375,-74.03564453125,-8.06427001953125,0.07928466796875,-0.11199951171875,1.070556640625,31.204288482666016,84.01852416992188,-40.59480285644531
649,86.4105224609375,-68.7713623046875,-7.99560546875,0.12957763671875,-0.18695068359375,1.146240234375,31.204288482666016,84.01852416992188,-40.59480285644531
650,79.55169677734375,-53.50494384765625,-7.965087890625,0.11810302734375,-0.2294921875,1.2127685546875,31.204288482666016,84.01852416992188,-40.59480285644531
651,68.6187744140625,-33.53118896484375,-7.9345703125,0.05926513671875,-0.15557861328125,1.25909423828125,28.559858322143555,85.61045837402344,-46.19994354248047
652,53.01666259765625,-12.16888427734375,-8.026123046875,-0.00408935546875,-0.1014404296875,1.28277587890625,28.559858322143555,85.61045837402344,-46.19994354248047
653,35.33935546875,6.69097900390625,-7.9193115234375,-0.06658935546875,-0.09454345703125,1.27081298828125,28.559858322143555,85.61045837402344,-46.19994354248047
654,18.24951171875,21.4385986328125,-7.99560546875,-0.09967041015625,-0.053955078125,1.219482421875,28.559858322143555,85.61045837402344,-46.19994354248047
655,9.765625,34.1949462890625,-7.965087890625,-0.1055908203125,-0.0218505859375,1.117431640625,28.559858322143555,85.61045837402344,-46.19994354248047
656,19.9127197265625,42.83905029296875,-8.20159912109375,-0.06976318359375,-0.0216064453125,0.9998779296875,28.559858322143555,85.61045837402344,-46.19994354248047
657,51.1932373046875,50.6744384765625,-8.24737548828125,-0.00787353515625,-0.07720947265625,0.90325927734375,28.559858322143555,85.61045837402344,-46.19994354248047
658,99.4415283203125,59.7991943359375,-8.0718994140625,0.03289794921875,-0.14300537109375,0.86407470703125,28.559858322143555,85.61045837402344,-46.19994354248047
659,145.28656005859375,68.15338134765625,-8.21685791015625,-0.00128173828125,-0.16693115234375,0.9046630859375,28.559858322143555,85.61045837402344,-46.19994354248047
660,169.4183349609375,73.26507568359375,-7.9345703125,-0.08758544921875,-0.10748291015625,0.982666015625,28.559858322143555,85.61045837402344,-46.19994354248047
661,164.23797607421875,67.962646484375,-8.2550048828125,-0.17828369140625,-0.03912353515625,1.06878662109375,28.559858322143555,85.61045837402344,-46.19994354248047
662,143.18084716796875,54.5196533203125,-8.06427001953125,-0.2197265625,-0.01470947265625,1.119384765625,28.559858322143555,85.61045837402344,-46.19994354248047
663,127.0904541015625,45.03631591796875,-7.904052734375,-0.1982421875,0.01727294921875,1.10870361328125,27.325788497924805,87.909912109375,-48.74773406982422
664,127.18963623046875,46.966552734375,-8.14056396484375,-0.150634765625,-0.115478515625,1.09051513671875,27.325788497924805,87.909912109375,-48.74773406982422
665,147.59063720703125,49.40032958984375,-8.06427001953125,-0.143310546875,-0.06280517578125,1.0794677734375,27.325788497924805,87.909912109375,-48.74773406982422
666,172.32513427734375,64.03350830078125,-7.9498291015625,-0.170166015625,-0.15057373046875,1.142333984375,27.325788497924805,87.909912109375,-48.74773406982422
667,184.722900390625,87.18109130859375,-7.965087890625,-0.2496337890625,-0.1285400390625,1.1982421875,27.325788497924805,87.909912109375,-48.74773406982422
668,181.5338134765625,101.61590576171875,-8.12530517578125,-0.32171630859375,-0.097900390625,1.24249267578125,27.325788497924805,87.909912109375,-48.74773406982422
669,167.15240478515625,107.94830322265625,-8.12530517578125,-0.35107421875,-0.09515380859375,1.27508544921875,27.325788497924805,87.909912109375,-48.74773406982422
670,142.63153076171875,109.38262939453125,-8.056640625,-0.35223388671875,-0.11016845703125,1.28515625,27.325788497924805,87.909912109375,-48.74773406982422
671,112.4725341796875,109.344482421875,-7.92694091796875,-0.3572998046875,-0.0958251953125,1.25872802734375,27.325788497924805,87.909912109375,-48.74773406982422
672,86.67755126953125,107.97119140625,-8.056640625,-0.3404541015625,-0.06964111328125,1.197021484375,27.325788497924805,87.909912109375,-48.74773406982422
673,75.93536376953125,103.82080078125,-8.1024169921875,-0.33099365234375,-0.1107177734375,1.126220703125,27.325788497924805,87.909912109375,-48.74773406982422
674,82.14569091796875,102.6763916015625,-8.07952880859375,-0.3856201171875,-0.11669921875,1.1016845703125,27.325788497924805,87.909912109375,-48.74773406982422
675,105.743408203125,115.60821533203125,-7.9193115234375,-0.45660400390625,0.0323486328125,1.105224609375,27.325788497924805,87.909912109375,-48.74773406982422
676,142.02117919921875,144.378662109375,-8.148193359375,-0.53582763671875,0.142333984375,1.1541748046875,22.742107391357422,86.49486541748047,-55.541839599609375
677,171.76055908203125,172.34039306640625,-8.23211669921875,-0.5833740234375,0.168701171875,1.2247314453125,22.742107391357422,86.49486541748047,-55.541839599609375
678,190.155029296875,196.1669921875,-8.2244873046875,-0.53466796875,0.16107177734375,1.26251220703125,22.742107391357422,86.49486541748047,-55.541839599609375
679,196.83074951171875,210.479736328125,-8.1024169921875,-0.44805908203125,0.11822509765625,1.2821044921875,22.742107391357422,86.49486541748047,-55.541839599609375
680,193.09234619140625,224.5941162109375,-8.07952880859375,-0.4630126953125,0.10260009765625,1.3526611328125,22.742107391357422,86.49486541748047,-55.541839599609375
681,163.79547119140625,248.16131591796875,-8.1024169921875,-0.49017333984375,0.1378173828125,1.41607666015625,22.742107391357422,86.49486541748047,-55.541839599609375
682,109.82513427734375,249.99237060546875,-8.11004638671875,-0.46575927734375,0.12176513671875,1.359619140625,22.742107391357422,86.49486541748047,-55.541839599609375
683,56.854248046875,249.99237060546875,-8.14056396484375,-0.3499755859375,0.11651611328125,1.14520263671875,22.742107391357422,86.49486541748047,-55.541839599609375
684,21.331787109375,249.99237060546875,-8.1329345703125,-0.21038818359375,0.109130859375,0.88385009765625,22.742107391357422,86.49486541748047,-55.541839599609375
685,11.8560791015625,249.99237060546875,-8.1634521484375,-0.0770263671875,0.0848388671875,0.659423828125,22.742107391357422,86.49486541748047,-55.541839599609375
686,28.8848876953125,249.99237060546875,-8.1634521484375,0.0157470703125,0.04522705078125,0.49383544921875,22.742107391357422,86.49486541748047,-55.541839599609375
687,55.70220947265625,249.99237060546875,-8.087158203125,0.0234375,0.13909912109375,0.38311767578125,22.742107391357422,86.49486541748047,-55.541839599609375
688,71.14410400390625,249.99237060546875,-8.056640625,-0.0443115234375,0.275146484375,0.36663818359375,23.09469985961914,85.78733825683594,-61.65653991699219
689,66.7266845703125,247.6043701171875,-7.9193115234375,-0.14312744140625,0.382080078125,0.40283203125,23.09469985961914,85.78733825683594,-61.65653991699219
690,46.5850830078125,234.10797119140625,-8.0718994140625,-0.1846923828125,0.41851806640625,0.4110107421875,23.09469985961914,85.78733825683594,-61.65653991699219
691,26.275634765625,222.8851318359375,-8.07952880859375,-0.1353759765625,0.43341064453125,0.3402099609375,23.09469985961914,85.78733825683594,-61.65653991699219
692,15.86151123046875,213.66119384765625,-7.94219970703125,-0.06988525390625,0.41436767578125,0.26544189453125,23.09469985961914,85.78733825683594,-61.65653991699219
693,2.83050537109375,205.78765869140625,-8.03375244140625,-0.03045654296875,0.38385009765625,0.2462158203125,23.09469985961914,85.78733825683594,-61.65653991699219
694,-29.12139892578125,194.9615478515625,-7.9498291015625,-0.03509521484375,0.3966064453125,0.22802734375,23.09469985961914,85.78733825683594,-61.65653991699219
695,-72.01385498046875,166.6717529296875,-8.0718994140625,-0.02398681640625,0.41058349609375,0.15948486328125,23.09469985961914,85.78733825683594,-61.65653991699219
696,-110.71014404296875,128.59344482421875,-8.0413818359375,-0.0208740234375,0.40374755859375,0.05426025390625,23.09469985961914,85.78733825683594,-61.65653991699219
697,-134.60540771484375,94.47479248046875,-8.056640625,-0.046630859375,0.40362548828125,-0.032470703125,23.09469985961914,85.78733825683594,-61.65653991699219
698,-147.77374267578125,74.9664306640625,-7.9345703125,-0.155029296875,0.3785400390625,-0.0069580078125,23.09469985961914,85.78733825683594,-61.65653991699219
699,-161.82708740234375,67.69561767578125,-8.04901123046875,-0.3218994140625,0.42724609375,0.0712890625,23.09469985961914,85.78733825683594,-61.65653991699219
700,-170.7611083984375,72.92938232421875,-7.91168212890625,-0.518798828125,0.556640625,0.1109619140625,31.909469604492188,86.14109802246094,-56.90066146850586
701,-155.52520751953125,95.34454345703125,-8.01849365234375,-0.6153564453125,0.696044921875,0.13079833984375,31.909469604492188,86.14109802246094,-56.90066146850586
702,-119.43817138671875,142.29583740234375,-7.9345703125,-0.59918212890625,0.6373291015625,0.2076416015625,31.909469604492188,86.14109802246094,-56.90066146850586
703,-76.385498046875,205.2459716796875,-7.99560546875,-0.50653076171875,0.4681396484375,0.31085205078125,31.909469604492188,86.14109802246094,-56.90066146850586
704,-50.59051513671875,249.99237060546875,-7.8277587890625,-0.41973876953125,0.48492431640625,0.37701416015625,31.909469604492188,86.14109802246094,-56.90066146850586
705,-75.225830078125,249.99237060546875,-8.0413818359375,-0.464599609375,0.56927490234375,0.46954345703125,31.909469604492188,86.14109802246094,-56.90066146850586
706,-143.5546875,249.99237060546875,-7.94219970703125,-0.53216552734375,0.484375,0.5584716796875,31.909469604492188,86.14109802246094,-56.90066146850586
707,-228.546142578125,249.99237060546875,-7.92694091796875,-0.58502197265625,0.435546875,0.509033203125,31.909469604492188,86.14109802246094,-56.90066146850586
708,-250.0,249.99237060546875,-7.95745849609375,-0.5938720703125,0.37994384765625,0.27728271484375,31.909469604492188,86.14109802246094,-56.90066146850586
709,-250.0,249.99237060546875,-8.09478759765625,-0.5615234375,0.31451416015625,-0.0084228515625,31.909469604492188,86.14109802246094,-56.90066146850586
710,-250.0,249.99237060546875,-7.86590576171875,-0.54833984375,0.21392822265625,-0.20709228515625,31.909469604492188,86.14109802246094,-56.90066146850586
711,-200.92010498046875,249.99237060546875,-7.9345703125,-0.57818603515625,0.07452392578125,-0.276123046875,31.909469604492188,86.14109802246094,-56.90066146850586
712,-142.9595947265625,249.99237060546875,-8.20159912109375,-0.64923095703125,0.14105224609375,-0.24102783203125,31.909469604492188,86.14109802246094,-56.90066146850586
713,-108.14666748046875,249.99237060546875,-8.01849365234375,-0.75579833984375,0.23553466796875,-0.07708740234375,40.37165069580078,79.41962432861328,-41.27421188354492
714,-105.6365966796875,249.99237060546875,-8.0108642578125,-0.88427734375,0.35357666015625,0.1390380859375,40.37165069580078,79.41962432861328,-41.27421188354492
715,-138.43536376953125,249.99237060546875,-8.026123046875,-0.98809814453125,0.42559814453125,0.37371826171875,40.37165069580078,79.41962432861328,-41.27421188354492
716,-204.97894287109375,249.99237060546875,-7.9803466796875,-1.041259765625,0.39080810546875,0.56024169921875,40.37165069580078,79.41962432861328,-41.27421188354492
717,-250.0,249.99237060546875,-8.00323486328125,-1.06695556640625,0.1600341796875,0.58935546875,40.37165069580078,79.41962432861328,-41.27421188354492
718,-250.0,249.99237060546875,-8.0718994140625,-1.10888671875,-0.1004638671875,0.4840087890625,40.37165069580078,79.41962432861328,-41.27421188354492
719,-250.0,249.99237060546875,-8.1634521484375,-1.0716552734375,-0.368896484375,0.288330078125,40.37165069580078,79.41962432861328,-41.27421188354492
720,-250.0,249.99237060546875,-7.97271728515625,-1.04949951171875,-0.55535888671875,0.05401611328125,40.37165069580078,79.41962432861328,-41.27421188354492
721,-250.0,249.99237060546875,-7.7972412109375,-1.06524658203125,-0.54705810546875,-0.1849365234375,40.37165069580078,79.41962432861328,-41.27421188354492
722,-201.9195556640625,249.99237060546875,-7.94219970703125,-1.22515869140625,-0.19110107421875,-0.60223388671875,40.37165069580078,79.41962432861328,-41.27421188354492
723,-133.49151611328125,249.99237060546875,-7.99560546875,-1.304443359375,-0.1514892578125,-0.7183837890625,40.37165069580078,79.41962432861328,-41.27421188354492
724,-96.09222412109375,249.99237060546875,-7.80487060546875,-1.37261962890625,0.04327392578125,-0.51019287109375,40.37165069580078,79.41962432861328,-41.27421188354492
725,-102.76031494140625,241.76025390625,-7.98797607421875,-1.51800537109375,0.01739501953125,-0.130615234375,35.78797149658203,60.670223236083984,-23.609527587890625
726,-126.02996826171875,206.5277099609375,-7.98797607421875,-1.62774658203125,-0.02423095703125,0.148193359375,35.78797149658203,60.670223236083984,-23.609527587890625
727,-147.15576171875,208.1451416015625,-8.0108642578125,-1.719482421875,-0.01763916015625,0.33880615234375,35.78797149658203,60.670223236083984,-23.609527587890625
728,-162.353515625,244.110107421875,-8.1024169921875,-1.74407958984375,0.0286865234375,0.4619140625,35.78797149658203,60.670223236083984,-23.609527587890625
729,-172.03521728515625,249.99237060546875,-8.20159912109375,-1.623291015625,-0.060791015625,0.45294189453125,35.78797149658203,60.670223236083984,-23.609527587890625
730,-168.670654296875,249.99237060546875,-8.12530517578125,-1.39447021484375,-0.19970703125,0.29852294921875,35.78797149658203,60.670223236083984,-23.609527587890625
731,-157.9437255859375,249.99237060546875,-8.00323486328125,-1.254150390625,-0.2928466796875,0.17919921875,35.78797149658203,60.670223236083984,-23.609527587890625
732,-155.792236328125,249.99237060546875,-7.965087890625,-1.25335693359375,-0.25177001953125,0.16094970703125,35.78797149658203,60.670223236083984,-23.609527587890625
733,-163.39874267578125,249.99237060546875,-7.97271728515625,-1.28936767578125,-0.1771240234375,0.15509033203125,35.78797149658203,60.670223236083984,-23.609527587890625
734,-172.5616455078125,246.00982666015625,-8.20159912109375,-1.35589599609375,-0.139892578125,0.17041015625,35.78797149658203,60.670223236083984,-23.609527587890625
735,-174.13330078125,219.93255615234375,-8.1329345703125,-1.403564453125,-0.1446533203125,0.14678955078125,35.78797149658203,60.670223236083984,-23.609527587890625
736,-155.609130859375,207.34405517578125,-7.89642333984375,-1.3919677734375,-0.18310546875,0.1649169921875,35.78797149658203,60.670223236083984,-23.609527587890625
737,-140.594482421875,214.0960693359375,-7.9193115234375,-1.354248046875,-0.17059326171875,0.33642578125,35.78797149658203,60.670223236083984,-23.609527587890625
738,-141.89910888671875,227.508544921875,-8.056640625,-1.30181884765625,-0.19140625,0.46746826171875,22.742107391357422,48.996070861816406,-19.87276840209961
739,-143.4173583984375,243.44635009765625,-7.97271728515625,-1.23388671875,-0.16064453125,0.4903564453125,22.742107391357422,48.996070861816406,-19.87276840209961
740,-135.67352294921875,249.99237060546875,-7.91168212890625,-1.19964599609375,-0.13262939453125,0.44866943359375,22.742107391357422,48.996070861816406,-19.87276840209961
741,-122.99346923828125,249.99237060546875,-8.23211669921875,-1.2353515625,-0.163818359375,0.425537109375,22.742107391357422,48.996070861816406,-19.87276840209961
742,-116.49322509765625,249.99237060546875,-7.97271728515625,-1.30950927734375,-0.19732666015625,0.43927001953125,22.742107391357422,48.996070861816406,-19.87276840209961
